<?xml version="1.0" encoding="UTF-8"?><CarePlan xmlns="http://hl7.org/fhir">
  <id value="f001"/>
  <meta>
    <security>
      <system value="http://terminology.hl7.org/CodeSystem/v3-ActReason"/>
      <code value="HTEST"/>
      <display value="test health data"/>
    </security>
  </meta>
  <text><status value="generated"/><div xmlns="http://www.w3.org/1999/xhtml"><p><b>Generated Narrative: CarePlan</b><a name="f001"> </a></p><div style="display: inline-block; background-color: #d9e0e7; padding: 6px; margin: 4px; border: 1px solid #8da1b4; border-radius: 5px; line-height: 60%"><p style="margin-bottom: 0px">Resource CarePlan "f001" </p></div><p><b>identifier</b>: id: CP2903 (use: OFFICIAL)</p><p><b>status</b>: completed</p><p><b>intent</b>: plan</p><p><b>subject</b>: <a href="patient-example-f001-pieter.html">Patient/f001: P. van de Heuvel</a> "Pieter VAN DE HEUVEL"</p><p><b>period</b>: 2011-06-26 --&gt; 2011-06-27</p><p><b>careTeam</b>: <a name="careteam"> </a></p><blockquote><p/><p><a name="careteam"> </a></p><h3>Participants</h3><table class="grid"><tr><td>-</td><td><b>Member</b></td></tr><tr><td>*</td><td><a href="practitioner-example-f002-pv.html">Practitioner/f002: P. Voigt</a> "Pieter VOIGT"</td></tr></table></blockquote><h3>Addresses</h3><table class="grid"><tr><td>-</td><td><b>Reference</b></td></tr><tr><td>*</td><td><a href="condition-example-f201-fever.html">Condition/f201: ?????</a></td></tr></table><p><b>goal</b>: <a name="goal"> </a></p><blockquote><p/><p><a name="goal"> </a></p><p><b>lifecycleStatus</b>: completed</p><p><b>achievementStatus</b>: Achieved <span style="background: LightGoldenRodYellow; margin: 4px; border: 1px solid khaki"> (<a href="http://terminology.hl7.org/4.0.0/CodeSystem-goal-achievement.html">Goal achievement status</a>#achieved)</span></p><p><b>description</b>: recovery surgery on heart of patient <span style="background: LightGoldenRodYellow; margin: 4px; border: 1px solid khaki"> ()</span></p><p><b>subject</b>: <a href="patient-example-f001-pieter.html">Patient/f001: P. van de Heuvel</a> "Pieter VAN DE HEUVEL"</p><p><b>note</b>: goal accomplished without complications</p></blockquote><blockquote><p><b>activity</b></p><h3>PlannedActivityDetails</h3><table class="grid"><tr><td>-</td><td><b>Kind</b></td><td><b>Code</b></td><td><b>Status</b></td><td><b>DoNotPerform</b></td><td><b>Scheduled[x]</b></td><td><b>Performer</b></td></tr><tr><td>*</td><td>ServiceRequest</td><td><span title="  urn:oid:2.16.840.1.113883.4.642.1.39  ">Operation on heart <span style="background: LightGoldenRodYellow; margin: 4px; border: 1px solid khaki"> (<a href="https://browser.ihtsdotools.org/">SNOMED CT</a>#64915003)</span></span></td><td>completed</td><td>true</td><td>2011-06-27T09:30:10+01:00</td><td><a href="practitioner-example-f002-pv.html">Practitioner/f002: P. Voigt</a> "Pieter VOIGT"</td></tr></table></blockquote></div></text><contained>
    <CareTeam>
        <id value="careteam"/>
        <participant>
    	    <member>
      		<reference value="Practitioner/f002"/>
      		<display value="P. Voigt"/>
            </member>
  	</participant>
    </CareTeam>
  </contained>  
  <contained>
    <Goal>
      <id value="goal"/>
      <lifecycleStatus value="completed"/>
	  <achievementStatus>
		<coding>
			<system value="http://terminology.hl7.org/CodeSystem/goal-achievement"/>
			<code value="achieved"/>
			<display value="Achieved"/>
		</coding>
		<text value="Achieved"/>
	  </achievementStatus>
      <description>
        <text value="recovery surgery on heart of patient"/>
      </description>
      <subject>
	<reference value="Patient/f001"/>
	<display value="P. van de Heuvel"/>
      </subject>
      <note>
        <text value="goal accomplished without complications"/>
      </note>
    </Goal>
  </contained>
  <identifier>
    <use value="official"/>
        <!--   urn:oid:2.16.840.1.113883.4.642.1.36   -->
    <system value="http://www.bmc.nl/zorgportal/identifiers/careplans"/>
    <value value="CP2903"/>
  </identifier>
  <status value="completed"/>
  <intent value="plan"/>
  <subject>
    <reference value="Patient/f001"/>
    <display value="P. van de Heuvel"/>
  </subject>
  <period>
    <start value="2011-06-26"/>
    <end value="2011-06-27"/>
  </period>
  <careTeam>
    <reference value="#careteam"/>
  </careTeam>  
  <addresses>
    <reference>
      <reference value="Condition/f201"/>
          <!--  TODO Correcte referentie  -->
      <display value="?????"/>
    </reference>
  </addresses>
  <goal>
    <reference value="#goal"/>
  </goal>
  <activity>
    <plannedActivityDetail>
      <kind value="ServiceRequest"/>
          <!--   urn:oid:2.16.840.1.113883.4.642.1.39   -->
      <code>
        <coding>
          <system value="http://snomed.info/sct"/>
          <code value="64915003"/>
          <display value="Operation on heart"/>
        </coding>
      </code>
      <status value="completed"/>
      <doNotPerform value="true"/>
      <scheduledString value="2011-06-27T09:30:10+01:00"/>
      <performer>
        <reference value="Practitioner/f002"/>
        <display value="P. Voigt"/>
      </performer>
    </plannedActivityDetail>
  </activity>
</CarePlan>