<?xml version="1.0" encoding="UTF-8"?><CarePlan xmlns="http://hl7.org/fhir">
  <id value="f201"/>
    <meta>
    <security>
      <system value="http://terminology.hl7.org/CodeSystem/v3-ActReason"/>
      <code value="HTEST"/>
      <display value="test health data"/>
    </security>
  </meta>
  <text><status value="generated"/><div xmlns="http://www.w3.org/1999/xhtml"><p><b>Generated Narrative: CarePlan</b><a name="f201"> </a></p><div style="display: inline-block; background-color: #d9e0e7; padding: 6px; margin: 4px; border: 1px solid #8da1b4; border-radius: 5px; line-height: 60%"><p style="margin-bottom: 0px">Resource CarePlan "f201" </p></div><p><b>status</b>: draft</p><p><b>intent</b>: proposal</p><p><b>subject</b>: <span title=" This careplan is &#34;ended&#34;, but was never closed in the EHR, wherefore the status is &#34;planned&#34; "><a href="patient-example-f201-roel.html">Patient/f201: Roel</a> "Roel"</span></p><p><b>period</b>: 2013-03-11 --&gt; 2013-03-13</p><p><b>careTeam</b>: <a name="careteam"> </a></p><blockquote><p/><p><a name="careteam"> </a></p><blockquote><p><b>participant</b></p><p><b>role</b>: Review of care plan <span style="background: LightGoldenRodYellow; margin: 4px; border: 1px solid khaki"> (<a href="https://browser.ihtsdotools.org/">SNOMED CT</a>#425268008)</span></p><p><b>member</b>: <a href="practitioner-example-f201-ab.html">Practitioner/f201: Dokter Bronsig</a> "Dokter Bronsig"</p></blockquote><blockquote><p><b>participant</b></p><p><b>role</b>: Carer <span style="background: LightGoldenRodYellow; margin: 4px; border: 1px solid khaki"> (<a href="https://browser.ihtsdotools.org/">SNOMED CT</a>#229774002)</span></p><p><b>member</b>: <a href="practitioner-example-f204-ce.html">Practitioner/f204: Nurse Carla Espinosa</a> "Carla Espinosa"</p></blockquote></blockquote><h3>Addresses</h3><table class="grid"><tr><td>-</td><td><b>Reference</b></td></tr><tr><td>*</td><td><a href="condition-example-f204-renal.html">Condition/f204: Roel's renal insufficiency</a></td></tr></table><p><b>goal</b>: <a name="goal"> </a></p><blockquote><p/><p><a name="goal"> </a></p><p><b>lifecycleStatus</b>: completed</p><p><b>achievementStatus</b>: Achieved <span style="background: LightGoldenRodYellow; margin: 4px; border: 1px solid khaki"> (<a href="http://terminology.hl7.org/4.0.0/CodeSystem-goal-achievement.html">Goal achievement status</a>#achieved)</span></p><p><b>description</b>: Re-established renal function with at least healthy nutrients. <span style="background: LightGoldenRodYellow; margin: 4px; border: 1px solid khaki"> ()</span></p><p><b>subject</b>: <a href="patient-example-f201-roel.html">Patient/f201: Roel</a> "Roel"</p></blockquote><blockquote><p><b>activity</b></p><h3>PlannedActivityDetails</h3><table class="grid"><tr><td>-</td><td><b>Kind</b></td><td><b>Code</b></td><td><b>Status</b></td><td><b>DoNotPerform</b></td><td><b>Scheduled[x]</b></td><td><b>Product[x]</b></td><td><b>DailyAmount</b></td></tr><tr><td>*</td><td>NutritionOrder</td><td>Potassium supplementation <span style="background: LightGoldenRodYellow; margin: 4px; border: 1px solid khaki"> (<a href="https://browser.ihtsdotools.org/">SNOMED CT</a>#284093001)</span></td><td>completed</td><td>false</td><td>daily</td><td><span title=" TODO Isn't &lt;performer&gt; redundant when considering &lt;participant&gt; that was defined before? "><a href="substance-example-f203-potassium.html">Substance/f203: Potassium</a></span></td><td>80 mmol<span style="background: LightGoldenRodYellow"> (Details: SNOMED CT code 258718000 = 'millimole')</span></td></tr></table></blockquote><blockquote><p><b>activity</b></p><h3>PlannedActivityDetails</h3><table class="grid"><tr><td>-</td><td><b>Kind</b></td><td><b>Code</b></td><td><b>Status</b></td><td><b>DoNotPerform</b></td></tr><tr><td>*</td><td>ServiceRequest</td><td>Echography of kidney <span style="background: LightGoldenRodYellow; margin: 4px; border: 1px solid khaki"> (<a href="https://browser.ihtsdotools.org/">SNOMED CT</a>#306005)</span></td><td>completed</td><td>false</td></tr></table></blockquote></div></text><contained>
    <CareTeam>
        <id value="careteam"/>
        <participant>
    	    <role>
      		<coding>
        	    <system value="http://snomed.info/sct"/>
	            <code value="425268008"/>
        	    <display value="Review of care plan"/>
      		</coding>
    	    </role>
    	    <member>
      	    	<reference value="Practitioner/f201"/>
      	    	<display value="Dokter Bronsig"/>
    	    </member>
      	</participant>
  	<participant>
    	    <role>
      		<coding>
        	    <system value="http://snomed.info/sct"/>
        	    <code value="229774002"/>
        	    <display value="Carer"/>
      		</coding>
    	    </role>
    	    <member>
      		<reference value="Practitioner/f204"/>
      		<display value="Nurse Carla Espinosa"/>
    	    </member>
  	</participant>
    </CareTeam>
  </contained>
  <contained>
    <Goal>
      <id value="goal"/>
      <lifecycleStatus value="completed"/>
	  <achievementStatus>
		<coding>
			<system value="http://terminology.hl7.org/CodeSystem/goal-achievement"/>
			<code value="achieved"/>
			<display value="Achieved"/>
		</coding>
		<text value="Achieved"/>
	  </achievementStatus>
      <description>
        <text value="Re-established renal function with at least healthy nutrients."/>
      </description>
      <subject>
        <reference value="Patient/f201"/>
        <display value="Roel"/>
      </subject>      
    </Goal>
  </contained>
  <status value="draft"/>
  <intent value="proposal"/>
      <!--  This careplan is "ended", but was never closed in the EHR, wherefore the status is "planned"  -->
  <subject>
        <!--  It entails Roel's careplan  -->
    <reference value="Patient/f201"/>
    <display value="Roel"/>
  </subject>
  <period>
    <start value="2013-03-11"/>
    <end value="2013-03-13"/>
        <!--  Period is less than nine days because the careplan requires adjustments after evaluation  -->
  </period>
  <careTeam>
    <reference value="#careteam"/>
  </careTeam>
  <addresses>
    <reference>
      <reference value="Condition/f204"/>
      <display value="Roel's renal insufficiency"/>
    </reference>
  </addresses>
  <goal>
    <reference value="#goal"/>
  </goal>
  <activity>
        <!--  Potassium supplement  -->
    <plannedActivityDetail>
      <kind value="NutritionOrder"/>
      <code>
        <coding>
          <system value="http://snomed.info/sct"/>
          <code value="284093001"/>
          <display value="Potassium supplementation"/>
        </coding>
      </code>
      <status value="completed"/>
      <doNotPerform value="false"/>
      <scheduledString value="daily"/>
          <!--  TODO Isn't <performer> redundant when considering <participant> that was defined before?  -->
      <productReference>
        <reference value="Substance/f203"/>
        <display value="Potassium"/>
      </productReference>
      <dailyAmount>
        <value value="80"/>
        <unit value="mmol"/>
        <system value="http://snomed.info/sct"/>
        <code value="258718000"/>
      </dailyAmount>
    </plannedActivityDetail>
  </activity>
  <activity>
        <!--  Echo of the kidney  -->
    <plannedActivityDetail>
      <kind value="ServiceRequest"/>
      <code>
        <coding>
          <system value="http://snomed.info/sct"/>
          <code value="306005"/>
          <display value="Echography of kidney"/>
        </coding>
      </code>
      <status value="completed"/>
      <doNotPerform value="false"/>
    </plannedActivityDetail>
  </activity>
</CarePlan>