{
  "resourceType": "Bundle",
  "id": "lipids",
  "type": "collection",
  "entry": [
    {
      "fullUrl": "https://example.com/base/DiagnosticReport/lipids",
      "resource": {
        "resourceType": "DiagnosticReport",
        "id": "lipids",
        "text": {
          "status": "generated",
          "div": "\u003cdiv xmlns\u003d\"http://www.w3.org/1999/xhtml\"\u003e\n\t\t\t\t\t\t\u003ch3\u003eLipid Report for Wile. E. COYOTE (MRN: 23453) issued 3-Mar 2009 14:26\u003c/h3\u003e\n\t\t\t\t\t\t\u003cpre\u003e\nTest                  Units       Value       Reference Range\nCholesterol           mmol/L      6.3         \u0026lt;4.5\nTriglyceride          mmol/L      1.3         \u0026lt;2.0\nHDL Cholesterol       mmol/L      1.3         \u0026gt;1.5\nLDL Chol. (calc)      mmol/L      4.2         \u0026lt;3.0\n      \u003c/pre\u003e\n\t\t\t\t\t\t\u003cp\u003eAcme Laboratory, Inc signed: Dr Pete Pathologist\u003c/p\u003e\n\t\t\t\t\t\u003c/div\u003e"
        },
        "identifier": [
          {
            "system": "http://acme.com/lab/reports",
            "value": "5234342"
          }
        ],
        "status": "final",
        "category": [
          {
            "coding": [
              {
                "system": "http://terminology.hl7.org/CodeSystem/v2-0074",
                "code": "HM"
              }
            ]
          }
        ],
        "code": {
          "coding": [
            {
              "system": "http://loinc.org",
              "code": "57698-3",
              "display": "Lipid panel with direct LDL - Serum or Plasma"
            }
          ],
          "text": "Lipid Panel"
        },
        "subject": {
          "reference": "Patient/pat2"
        },
        "effectiveDateTime": "2011-03-04T08:30:00+11:00",
        "issued": "2013-01-27T11:45:33+11:00",
        "performer": [
          {
            "reference": "Organization/1832473e-2fe0-452d-abe9-3cdb9879522f",
            "display": "Acme Laboratory, Inc"
          }
        ],
        "result": [
          {
            "id": "1",
            "reference": "Observation/cholesterol"
          },
          {
            "id": "2",
            "reference": "Observation/triglyceride"
          },
          {
            "id": "3",
            "reference": "Observation/hdlcholesterol"
          },
          {
            "id": "4",
            "reference": "Observation/ldlcholesterol"
          }
        ]
      }
    },
    {
      "fullUrl": "https://example.com/base/Observation/cholesterol",
      "resource": {
        "resourceType": "Observation",
        "id": "cholesterol",
        "text": {
          "status": "generated",
          "div": "\u003cdiv xmlns\u003d\"http://www.w3.org/1999/xhtml\"\u003e\u003cp\u003e\u003cb\u003eGenerated Narrative: Observation\u003c/b\u003e\u003ca name\u003d\"cholesterol\"\u003e \u003c/a\u003e\u003c/p\u003e\u003cdiv style\u003d\"display: inline-block; background-color: #d9e0e7; padding: 6px; margin: 4px; border: 1px solid #8da1b4; border-radius: 5px; line-height: 60%\"\u003e\u003cp style\u003d\"margin-bottom: 0px\"\u003eResource Observation \u0026quot;cholesterol\u0026quot; \u003c/p\u003e\u003c/div\u003e\u003cp\u003e\u003cb\u003estatus\u003c/b\u003e: final\u003c/p\u003e\u003cp\u003e\u003cb\u003ecode\u003c/b\u003e: Cholesterol \u003cspan style\u003d\"background: LightGoldenRodYellow; margin: 4px; border: 1px solid khaki\"\u003e (\u003ca href\u003d\"https://loinc.org/\"\u003eLOINC\u003c/a\u003e#35200-5 \u0026quot;Cholesterol [Moles/​volume] in Serum or Plasma\u0026quot;)\u003c/span\u003e\u003c/p\u003e\u003cp\u003e\u003cb\u003esubject\u003c/b\u003e: \u003ca href\u003d\"patient-example-b.html\"\u003ePatient/pat2\u003c/a\u003e \u0026quot;Duck DONALD\u0026quot;\u003c/p\u003e\u003cp\u003e\u003cb\u003eperformer\u003c/b\u003e: \u003ca href\u003d\"organization-example-lab.html\"\u003eOrganization/1832473e-2fe0-452d-abe9-3cdb9879522f: Acme Laboratory, Inc\u003c/a\u003e \u0026quot;Clinical Lab\u0026quot;\u003c/p\u003e\u003cp\u003e\u003cb\u003evalue\u003c/b\u003e: 6.3 mmol/L\u003cspan style\u003d\"background: LightGoldenRodYellow\"\u003e (Details: UCUM code mmol/L \u003d \u0027mmol/L\u0027)\u003c/span\u003e\u003c/p\u003e\u003ch3\u003eReferenceRanges\u003c/h3\u003e\u003ctable class\u003d\"grid\"\u003e\u003ctr\u003e\u003ctd\u003e-\u003c/td\u003e\u003ctd\u003e\u003cb\u003eHigh\u003c/b\u003e\u003c/td\u003e\u003c/tr\u003e\u003ctr\u003e\u003ctd\u003e*\u003c/td\u003e\u003ctd\u003e4.5 mmol/L\u003cspan style\u003d\"background: LightGoldenRodYellow\"\u003e (Details: UCUM code mmol/L \u003d \u0027mmol/L\u0027)\u003c/span\u003e\u003c/td\u003e\u003c/tr\u003e\u003c/table\u003e\u003c/div\u003e"
        },
        "status": "final",
        "code": {
          "coding": [
            {
              "system": "http://loinc.org",
              "code": "35200-5",
              "display": "Cholesterol [Moles/​volume] in Serum or Plasma"
            }
          ],
          "text": "Cholesterol"
        },
        "subject": {
          "reference": "Patient/pat2"
        },
        "performer": [
          {
            "reference": "Organization/1832473e-2fe0-452d-abe9-3cdb9879522f",
            "display": "Acme Laboratory, Inc"
          }
        ],
        "valueQuantity": {
          "value": 6.3,
          "unit": "mmol/L",
          "system": "http://unitsofmeasure.org",
          "code": "mmol/L"
        },
        "referenceRange": [
          {
            "high": {
              "value": 4.5,
              "unit": "mmol/L",
              "system": "http://unitsofmeasure.org",
              "code": "mmol/L"
            }
          }
        ]
      }
    },
    {
      "fullUrl": "https://example.com/base/Observation/triglyceride",
      "resource": {
        "resourceType": "Observation",
        "id": "triglyceride",
        "text": {
          "status": "generated",
          "div": "\u003cdiv xmlns\u003d\"http://www.w3.org/1999/xhtml\"\u003e\u003cp\u003e\u003cb\u003eGenerated Narrative: Observation\u003c/b\u003e\u003ca name\u003d\"triglyceride\"\u003e \u003c/a\u003e\u003c/p\u003e\u003cdiv style\u003d\"display: inline-block; background-color: #d9e0e7; padding: 6px; margin: 4px; border: 1px solid #8da1b4; border-radius: 5px; line-height: 60%\"\u003e\u003cp style\u003d\"margin-bottom: 0px\"\u003eResource Observation \u0026quot;triglyceride\u0026quot; \u003c/p\u003e\u003c/div\u003e\u003cp\u003e\u003cb\u003estatus\u003c/b\u003e: final\u003c/p\u003e\u003cp\u003e\u003cb\u003ecode\u003c/b\u003e: Triglyceride \u003cspan style\u003d\"background: LightGoldenRodYellow; margin: 4px; border: 1px solid khaki\"\u003e (\u003ca href\u003d\"https://loinc.org/\"\u003eLOINC\u003c/a\u003e#35217-9 \u0026quot;Triglyceride [Moles/​volume] in Serum or Plasma\u0026quot;)\u003c/span\u003e\u003c/p\u003e\u003cp\u003e\u003cb\u003esubject\u003c/b\u003e: \u003ca href\u003d\"patient-example-b.html\"\u003ePatient/pat2\u003c/a\u003e \u0026quot;Duck DONALD\u0026quot;\u003c/p\u003e\u003cp\u003e\u003cb\u003eperformer\u003c/b\u003e: \u003ca href\u003d\"organization-example-lab.html\"\u003eOrganization/1832473e-2fe0-452d-abe9-3cdb9879522f: Acme Laboratory, Inc\u003c/a\u003e \u0026quot;Clinical Lab\u0026quot;\u003c/p\u003e\u003cp\u003e\u003cb\u003evalue\u003c/b\u003e: 1.3 mmol/L\u003cspan style\u003d\"background: LightGoldenRodYellow\"\u003e (Details: UCUM code mmol/L \u003d \u0027mmol/L\u0027)\u003c/span\u003e\u003c/p\u003e\u003ch3\u003eReferenceRanges\u003c/h3\u003e\u003ctable class\u003d\"grid\"\u003e\u003ctr\u003e\u003ctd\u003e-\u003c/td\u003e\u003ctd\u003e\u003cb\u003eHigh\u003c/b\u003e\u003c/td\u003e\u003c/tr\u003e\u003ctr\u003e\u003ctd\u003e*\u003c/td\u003e\u003ctd\u003e2.0 mmol/L\u003cspan style\u003d\"background: LightGoldenRodYellow\"\u003e (Details: UCUM code mmol/L \u003d \u0027mmol/L\u0027)\u003c/span\u003e\u003c/td\u003e\u003c/tr\u003e\u003c/table\u003e\u003c/div\u003e"
        },
        "status": "final",
        "code": {
          "coding": [
            {
              "system": "http://loinc.org",
              "code": "35217-9",
              "display": "Triglyceride [Moles/​volume] in Serum or Plasma"
            }
          ],
          "text": "Triglyceride"
        },
        "subject": {
          "reference": "Patient/pat2"
        },
        "performer": [
          {
            "reference": "Organization/1832473e-2fe0-452d-abe9-3cdb9879522f",
            "display": "Acme Laboratory, Inc"
          }
        ],
        "valueQuantity": {
          "value": 1.3,
          "unit": "mmol/L",
          "system": "http://unitsofmeasure.org",
          "code": "mmol/L"
        },
        "referenceRange": [
          {
            "high": {
              "value": 2.0,
              "unit": "mmol/L",
              "system": "http://unitsofmeasure.org",
              "code": "mmol/L"
            }
          }
        ]
      }
    },
    {
      "fullUrl": "https://example.com/base/Observation/hdlcholesterol",
      "resource": {
        "resourceType": "Observation",
        "id": "hdlcholesterol",
        "text": {
          "status": "generated",
          "div": "\u003cdiv xmlns\u003d\"http://www.w3.org/1999/xhtml\"\u003e\u003cp\u003e\u003cb\u003eGenerated Narrative: Observation\u003c/b\u003e\u003ca name\u003d\"hdlcholesterol\"\u003e \u003c/a\u003e\u003c/p\u003e\u003cdiv style\u003d\"display: inline-block; background-color: #d9e0e7; padding: 6px; margin: 4px; border: 1px solid #8da1b4; border-radius: 5px; line-height: 60%\"\u003e\u003cp style\u003d\"margin-bottom: 0px\"\u003eResource Observation \u0026quot;hdlcholesterol\u0026quot; \u003c/p\u003e\u003c/div\u003e\u003cp\u003e\u003cb\u003estatus\u003c/b\u003e: final\u003c/p\u003e\u003cp\u003e\u003cb\u003ecode\u003c/b\u003e: Cholesterol in HDL \u003cspan style\u003d\"background: LightGoldenRodYellow; margin: 4px; border: 1px solid khaki\"\u003e (\u003ca href\u003d\"https://loinc.org/\"\u003eLOINC\u003c/a\u003e#2085-9 \u0026quot;HDL Cholesterol\u0026quot;)\u003c/span\u003e\u003c/p\u003e\u003cp\u003e\u003cb\u003esubject\u003c/b\u003e: \u003ca href\u003d\"patient-example-b.html\"\u003ePatient/pat2\u003c/a\u003e \u0026quot;Duck DONALD\u0026quot;\u003c/p\u003e\u003cp\u003e\u003cb\u003eperformer\u003c/b\u003e: \u003ca href\u003d\"organization-example-lab.html\"\u003eOrganization/1832473e-2fe0-452d-abe9-3cdb9879522f: Acme Laboratory, Inc\u003c/a\u003e \u0026quot;Clinical Lab\u0026quot;\u003c/p\u003e\u003cp\u003e\u003cb\u003evalue\u003c/b\u003e: 1.3 mmol/L\u003cspan style\u003d\"background: LightGoldenRodYellow\"\u003e (Details: UCUM code mmol/L \u003d \u0027mmol/L\u0027)\u003c/span\u003e\u003c/p\u003e\u003ch3\u003eReferenceRanges\u003c/h3\u003e\u003ctable class\u003d\"grid\"\u003e\u003ctr\u003e\u003ctd\u003e-\u003c/td\u003e\u003ctd\u003e\u003cb\u003eLow\u003c/b\u003e\u003c/td\u003e\u003c/tr\u003e\u003ctr\u003e\u003ctd\u003e*\u003c/td\u003e\u003ctd\u003e1.5 mmol/L\u003cspan style\u003d\"background: LightGoldenRodYellow\"\u003e (Details: UCUM code mmol/L \u003d \u0027mmol/L\u0027)\u003c/span\u003e\u003c/td\u003e\u003c/tr\u003e\u003c/table\u003e\u003c/div\u003e"
        },
        "status": "final",
        "code": {
          "coding": [
            {
              "system": "http://loinc.org",
              "code": "2085-9",
              "display": "HDL Cholesterol"
            }
          ],
          "text": "Cholesterol in HDL"
        },
        "subject": {
          "reference": "Patient/pat2"
        },
        "performer": [
          {
            "reference": "Organization/1832473e-2fe0-452d-abe9-3cdb9879522f",
            "display": "Acme Laboratory, Inc"
          }
        ],
        "valueQuantity": {
          "value": 1.3,
          "unit": "mmol/L",
          "system": "http://unitsofmeasure.org",
          "code": "mmol/L"
        },
        "referenceRange": [
          {
            "low": {
              "value": 1.5,
              "unit": "mmol/L",
              "system": "http://unitsofmeasure.org",
              "code": "mmol/L"
            }
          }
        ]
      }
    },
    {
      "fullUrl": "https://example.com/base/Observation/ldlcholesterol",
      "resource": {
        "resourceType": "Observation",
        "id": "ldlcholesterol",
        "text": {
          "status": "generated",
          "div": "\u003cdiv xmlns\u003d\"http://www.w3.org/1999/xhtml\"\u003e\u003cp\u003e\u003cb\u003eGenerated Narrative: Observation\u003c/b\u003e\u003ca name\u003d\"ldlcholesterol\"\u003e \u003c/a\u003e\u003c/p\u003e\u003cdiv style\u003d\"display: inline-block; background-color: #d9e0e7; padding: 6px; margin: 4px; border: 1px solid #8da1b4; border-radius: 5px; line-height: 60%\"\u003e\u003cp style\u003d\"margin-bottom: 0px\"\u003eResource Observation \u0026quot;ldlcholesterol\u0026quot; \u003c/p\u003e\u003c/div\u003e\u003cp\u003e\u003cb\u003estatus\u003c/b\u003e: final\u003c/p\u003e\u003cp\u003e\u003cb\u003ecode\u003c/b\u003e: LDL Chol. (Calc) \u003cspan style\u003d\"background: LightGoldenRodYellow; margin: 4px; border: 1px solid khaki\"\u003e (\u003ca href\u003d\"https://loinc.org/\"\u003eLOINC\u003c/a\u003e#13457-7 \u0026quot;Cholesterol in LDL [Mass/volume] in Serum or Plasma by calculation\u0026quot;)\u003c/span\u003e\u003c/p\u003e\u003cp\u003e\u003cb\u003esubject\u003c/b\u003e: \u003ca href\u003d\"patient-example-b.html\"\u003ePatient/pat2\u003c/a\u003e \u0026quot;Duck DONALD\u0026quot;\u003c/p\u003e\u003cp\u003e\u003cb\u003eperformer\u003c/b\u003e: \u003ca href\u003d\"organization-example-lab.html\"\u003eOrganization/1832473e-2fe0-452d-abe9-3cdb9879522f: Acme Laboratory, Inc\u003c/a\u003e \u0026quot;Clinical Lab\u0026quot;\u003c/p\u003e\u003cp\u003e\u003cb\u003evalue\u003c/b\u003e: 4.6 mmol/L\u003cspan style\u003d\"background: LightGoldenRodYellow\"\u003e (Details: UCUM code mmol/L \u003d \u0027mmol/L\u0027)\u003c/span\u003e\u003c/p\u003e\u003ch3\u003eReferenceRanges\u003c/h3\u003e\u003ctable class\u003d\"grid\"\u003e\u003ctr\u003e\u003ctd\u003e-\u003c/td\u003e\u003ctd\u003e\u003cb\u003eHigh\u003c/b\u003e\u003c/td\u003e\u003c/tr\u003e\u003ctr\u003e\u003ctd\u003e*\u003c/td\u003e\u003ctd\u003e3.0 mmol/L\u003cspan style\u003d\"background: LightGoldenRodYellow\"\u003e (Details: UCUM code mmol/L \u003d \u0027mmol/L\u0027)\u003c/span\u003e\u003c/td\u003e\u003c/tr\u003e\u003c/table\u003e\u003c/div\u003e"
        },
        "status": "final",
        "code": {
          "coding": [
            {
              "system": "http://loinc.org",
              "code": "13457-7",
              "display": "Cholesterol in LDL [Mass/volume] in Serum or Plasma by calculation"
            }
          ],
          "text": "LDL Chol. (Calc)"
        },
        "subject": {
          "reference": "Patient/pat2"
        },
        "performer": [
          {
            "reference": "Organization/1832473e-2fe0-452d-abe9-3cdb9879522f",
            "display": "Acme Laboratory, Inc"
          }
        ],
        "valueQuantity": {
          "value": 4.6,
          "unit": "mmol/L",
          "system": "http://unitsofmeasure.org",
          "code": "mmol/L"
        },
        "referenceRange": [
          {
            "high": {
              "value": 3.0,
              "unit": "mmol/L",
              "system": "http://unitsofmeasure.org",
              "code": "mmol/L"
            }
          }
        ]
      }
    }
  ],
  "meta": {
    "tag": [
      {
        "system": "http://terminology.hl7.org/CodeSystem/v3-ActReason",
        "code": "HTEST",
        "display": "test health data"
      }
    ]
  }
}