{
  "resourceType": "CarePlan",
  "id": "f201",
  "text": {
    "status": "generated",
    "div": "\u003cdiv xmlns\u003d\"http://www.w3.org/1999/xhtml\"\u003e\u003cp\u003e\u003cb\u003eGenerated Narrative: CarePlan\u003c/b\u003e\u003ca name\u003d\"f201\"\u003e \u003c/a\u003e\u003c/p\u003e\u003cdiv style\u003d\"display: inline-block; background-color: #d9e0e7; padding: 6px; margin: 4px; border: 1px solid #8da1b4; border-radius: 5px; line-height: 60%\"\u003e\u003cp style\u003d\"margin-bottom: 0px\"\u003eResource CarePlan \u0026quot;f201\u0026quot; \u003c/p\u003e\u003c/div\u003e\u003cp\u003e\u003cb\u003estatus\u003c/b\u003e: draft\u003c/p\u003e\u003cp\u003e\u003cb\u003eintent\u003c/b\u003e: proposal\u003c/p\u003e\u003cp\u003e\u003cb\u003esubject\u003c/b\u003e: \u003cspan title\u003d\" This careplan is \u0026quot;ended\u0026quot;, but was never closed in the EHR, wherefore the status is \u0026quot;planned\u0026quot; \"\u003e\u003ca href\u003d\"patient-example-f201-roel.html\"\u003ePatient/f201: Roel\u003c/a\u003e \u0026quot;Roel\u0026quot;\u003c/span\u003e\u003c/p\u003e\u003cp\u003e\u003cb\u003eperiod\u003c/b\u003e: 2013-03-11 --\u0026gt; 2013-03-13\u003c/p\u003e\u003cp\u003e\u003cb\u003ecareTeam\u003c/b\u003e: \u003ca name\u003d\"careteam\"\u003e \u003c/a\u003e\u003c/p\u003e\u003cblockquote\u003e\u003cp/\u003e\u003cp\u003e\u003ca name\u003d\"careteam\"\u003e \u003c/a\u003e\u003c/p\u003e\u003cblockquote\u003e\u003cp\u003e\u003cb\u003eparticipant\u003c/b\u003e\u003c/p\u003e\u003cp\u003e\u003cb\u003erole\u003c/b\u003e: Review of care plan \u003cspan style\u003d\"background: LightGoldenRodYellow; margin: 4px; border: 1px solid khaki\"\u003e (\u003ca href\u003d\"https://browser.ihtsdotools.org/\"\u003eSNOMED CT\u003c/a\u003e#425268008)\u003c/span\u003e\u003c/p\u003e\u003cp\u003e\u003cb\u003emember\u003c/b\u003e: \u003ca href\u003d\"practitioner-example-f201-ab.html\"\u003ePractitioner/f201: Dokter Bronsig\u003c/a\u003e \u0026quot;Dokter Bronsig\u0026quot;\u003c/p\u003e\u003c/blockquote\u003e\u003cblockquote\u003e\u003cp\u003e\u003cb\u003eparticipant\u003c/b\u003e\u003c/p\u003e\u003cp\u003e\u003cb\u003erole\u003c/b\u003e: Carer \u003cspan style\u003d\"background: LightGoldenRodYellow; margin: 4px; border: 1px solid khaki\"\u003e (\u003ca href\u003d\"https://browser.ihtsdotools.org/\"\u003eSNOMED CT\u003c/a\u003e#229774002)\u003c/span\u003e\u003c/p\u003e\u003cp\u003e\u003cb\u003emember\u003c/b\u003e: \u003ca href\u003d\"practitioner-example-f204-ce.html\"\u003ePractitioner/f204: Nurse Carla Espinosa\u003c/a\u003e \u0026quot;Carla Espinosa\u0026quot;\u003c/p\u003e\u003c/blockquote\u003e\u003c/blockquote\u003e\u003ch3\u003eAddresses\u003c/h3\u003e\u003ctable class\u003d\"grid\"\u003e\u003ctr\u003e\u003ctd\u003e-\u003c/td\u003e\u003ctd\u003e\u003cb\u003eReference\u003c/b\u003e\u003c/td\u003e\u003c/tr\u003e\u003ctr\u003e\u003ctd\u003e*\u003c/td\u003e\u003ctd\u003e\u003ca href\u003d\"condition-example-f204-renal.html\"\u003eCondition/f204: Roel\u0027s renal insufficiency\u003c/a\u003e\u003c/td\u003e\u003c/tr\u003e\u003c/table\u003e\u003cp\u003e\u003cb\u003egoal\u003c/b\u003e: \u003ca name\u003d\"goal\"\u003e \u003c/a\u003e\u003c/p\u003e\u003cblockquote\u003e\u003cp/\u003e\u003cp\u003e\u003ca name\u003d\"goal\"\u003e \u003c/a\u003e\u003c/p\u003e\u003cp\u003e\u003cb\u003elifecycleStatus\u003c/b\u003e: completed\u003c/p\u003e\u003cp\u003e\u003cb\u003eachievementStatus\u003c/b\u003e: Achieved \u003cspan style\u003d\"background: LightGoldenRodYellow; margin: 4px; border: 1px solid khaki\"\u003e (\u003ca href\u003d\"http://terminology.hl7.org/4.0.0/CodeSystem-goal-achievement.html\"\u003eGoal achievement status\u003c/a\u003e#achieved)\u003c/span\u003e\u003c/p\u003e\u003cp\u003e\u003cb\u003edescription\u003c/b\u003e: Re-established renal function with at least healthy nutrients. \u003cspan style\u003d\"background: LightGoldenRodYellow; margin: 4px; border: 1px solid khaki\"\u003e ()\u003c/span\u003e\u003c/p\u003e\u003cp\u003e\u003cb\u003esubject\u003c/b\u003e: \u003ca href\u003d\"patient-example-f201-roel.html\"\u003ePatient/f201: Roel\u003c/a\u003e \u0026quot;Roel\u0026quot;\u003c/p\u003e\u003c/blockquote\u003e\u003cblockquote\u003e\u003cp\u003e\u003cb\u003eactivity\u003c/b\u003e\u003c/p\u003e\u003ch3\u003ePlannedActivityDetails\u003c/h3\u003e\u003ctable class\u003d\"grid\"\u003e\u003ctr\u003e\u003ctd\u003e-\u003c/td\u003e\u003ctd\u003e\u003cb\u003eKind\u003c/b\u003e\u003c/td\u003e\u003ctd\u003e\u003cb\u003eCode\u003c/b\u003e\u003c/td\u003e\u003ctd\u003e\u003cb\u003eStatus\u003c/b\u003e\u003c/td\u003e\u003ctd\u003e\u003cb\u003eDoNotPerform\u003c/b\u003e\u003c/td\u003e\u003ctd\u003e\u003cb\u003eScheduled[x]\u003c/b\u003e\u003c/td\u003e\u003ctd\u003e\u003cb\u003eProduct[x]\u003c/b\u003e\u003c/td\u003e\u003ctd\u003e\u003cb\u003eDailyAmount\u003c/b\u003e\u003c/td\u003e\u003c/tr\u003e\u003ctr\u003e\u003ctd\u003e*\u003c/td\u003e\u003ctd\u003eNutritionOrder\u003c/td\u003e\u003ctd\u003ePotassium supplementation \u003cspan style\u003d\"background: LightGoldenRodYellow; margin: 4px; border: 1px solid khaki\"\u003e (\u003ca href\u003d\"https://browser.ihtsdotools.org/\"\u003eSNOMED CT\u003c/a\u003e#284093001)\u003c/span\u003e\u003c/td\u003e\u003ctd\u003ecompleted\u003c/td\u003e\u003ctd\u003efalse\u003c/td\u003e\u003ctd\u003edaily\u003c/td\u003e\u003ctd\u003e\u003cspan title\u003d\" TODO Isn\u0027t \u0026lt;performer\u0026gt; redundant when considering \u0026lt;participant\u0026gt; that was defined before? \"\u003e\u003ca href\u003d\"substance-example-f203-potassium.html\"\u003eSubstance/f203: Potassium\u003c/a\u003e\u003c/span\u003e\u003c/td\u003e\u003ctd\u003e80 mmol\u003cspan style\u003d\"background: LightGoldenRodYellow\"\u003e (Details: SNOMED CT code 258718000 \u003d \u0027millimole\u0027)\u003c/span\u003e\u003c/td\u003e\u003c/tr\u003e\u003c/table\u003e\u003c/blockquote\u003e\u003cblockquote\u003e\u003cp\u003e\u003cb\u003eactivity\u003c/b\u003e\u003c/p\u003e\u003ch3\u003ePlannedActivityDetails\u003c/h3\u003e\u003ctable class\u003d\"grid\"\u003e\u003ctr\u003e\u003ctd\u003e-\u003c/td\u003e\u003ctd\u003e\u003cb\u003eKind\u003c/b\u003e\u003c/td\u003e\u003ctd\u003e\u003cb\u003eCode\u003c/b\u003e\u003c/td\u003e\u003ctd\u003e\u003cb\u003eStatus\u003c/b\u003e\u003c/td\u003e\u003ctd\u003e\u003cb\u003eDoNotPerform\u003c/b\u003e\u003c/td\u003e\u003c/tr\u003e\u003ctr\u003e\u003ctd\u003e*\u003c/td\u003e\u003ctd\u003eServiceRequest\u003c/td\u003e\u003ctd\u003eEchography of kidney \u003cspan style\u003d\"background: LightGoldenRodYellow; margin: 4px; border: 1px solid khaki\"\u003e (\u003ca href\u003d\"https://browser.ihtsdotools.org/\"\u003eSNOMED CT\u003c/a\u003e#306005)\u003c/span\u003e\u003c/td\u003e\u003ctd\u003ecompleted\u003c/td\u003e\u003ctd\u003efalse\u003c/td\u003e\u003c/tr\u003e\u003c/table\u003e\u003c/blockquote\u003e\u003c/div\u003e"
  },
  "contained": [
    {
      "resourceType": "CareTeam",
      "id": "careteam",
      "participant": [
        {
          "role": {
            "coding": [
              {
                "system": "http://snomed.info/sct",
                "code": "425268008",
                "display": "Review of care plan"
              }
            ]
          },
          "member": {
            "reference": "Practitioner/f201",
            "display": "Dokter Bronsig"
          }
        },
        {
          "role": {
            "coding": [
              {
                "system": "http://snomed.info/sct",
                "code": "229774002",
                "display": "Carer"
              }
            ]
          },
          "member": {
            "reference": "Practitioner/f204",
            "display": "Nurse Carla Espinosa"
          }
        }
      ]
    },
    {
      "resourceType": "Goal",
      "id": "goal",
      "lifecycleStatus": "completed",
      "achievementStatus": {
        "coding": [
          {
            "system": "http://terminology.hl7.org/CodeSystem/goal-achievement",
            "code": "achieved",
            "display": "Achieved"
          }
        ],
        "text": "Achieved"
      },
      "description": {
        "text": "Re-established renal function with at least healthy nutrients."
      },
      "subject": {
        "reference": "Patient/f201",
        "display": "Roel"
      }
    }
  ],
  "status": "draft",
  "intent": "proposal",
  "subject": {
    "reference": "Patient/f201",
    "display": "Roel"
  },
  "period": {
    "start": "2013-03-11",
    "end": "2013-03-13"
  },
  "careTeam": [
    {
      "reference": "#careteam"
    }
  ],
  "addresses": [
    {
      "reference": {
        "reference": "Condition/f204",
        "display": "Roel\u0027s renal insufficiency"
      }
    }
  ],
  "goal": [
    {
      "reference": "#goal"
    }
  ],
  "activity": [
    {
      "plannedActivityDetail": {
        "kind": "NutritionOrder",
        "code": {
          "coding": [
            {
              "system": "http://snomed.info/sct",
              "code": "284093001",
              "display": "Potassium supplementation"
            }
          ]
        },
        "status": "completed",
        "doNotPerform": false,
        "scheduledString": "daily",
        "productReference": {
          "reference": "Substance/f203",
          "display": "Potassium"
        },
        "dailyAmount": {
          "value": 80,
          "unit": "mmol",
          "system": "http://snomed.info/sct",
          "code": "258718000"
        }
      }
    },
    {
      "plannedActivityDetail": {
        "kind": "ServiceRequest",
        "code": {
          "coding": [
            {
              "system": "http://snomed.info/sct",
              "code": "306005",
              "display": "Echography of kidney"
            }
          ]
        },
        "status": "completed",
        "doNotPerform": false
      }
    }
  ],
  "meta": {
    "tag": [
      {
        "system": "http://terminology.hl7.org/CodeSystem/v3-ActReason",
        "code": "HTEST",
        "display": "test health data"
      }
    ]
  }
}