{"resourceType":"DocumentReference","id":"example","text":{"status":"extensions","div":"\u003cdiv xmlns\u003d\"http://www.w3.org/1999/xhtml\"\u003e\u003cp\u003e\u003cb\u003eGenerated Narrative: DocumentReference\u003c/b\u003e\u003ca name\u003d\"example\"\u003e \u003c/a\u003e\u003c/p\u003e\u003cdiv style\u003d\"display: inline-block; background-color: #d9e0e7; padding: 6px; margin: 4px; border: 1px solid #8da1b4; border-radius: 5px; line-height: 60%\"\u003e\u003cp style\u003d\"margin-bottom: 0px\"\u003eResource DocumentReference \u0026quot;example\u0026quot; \u003c/p\u003e\u003c/div\u003e\u003cp\u003e\u003cb\u003esupportingInfo\u003c/b\u003e: \u003ca href\u003d\"patient-example-xcda.html\"\u003ePatient/xcda\u003c/a\u003e \u0026quot;Henry LEVIN\u0026quot;\u003c/p\u003e\u003cp\u003e\u003cb\u003eDocumentReference Source Patient\u003c/b\u003e: \u003ca href\u003d\"patient-example-xcda.html\"\u003ePatient/xcda\u003c/a\u003e \u0026quot;Henry LEVIN\u0026quot;\u003c/p\u003e\u003cp\u003e\u003cb\u003eidentifier\u003c/b\u003e: entryUUID: urn:oid:1.3.6.1.4.1.21367.2005.3.7.1234, uniqueId: urn:oid:1.3.6.1.4.1.21367.2005.3.7\u003c/p\u003e\u003cp\u003e\u003cb\u003estatus\u003c/b\u003e: current\u003c/p\u003e\u003cp\u003e\u003cb\u003edocStatus\u003c/b\u003e: preliminary\u003c/p\u003e\u003cp\u003e\u003cb\u003etype\u003c/b\u003e: Outpatient Note \u003cspan style\u003d\"background: LightGoldenRodYellow; margin: 4px; border: 1px solid khaki\"\u003e (\u003ca href\u003d\"https://loinc.org/\"\u003eLOINC\u003c/a\u003e#34108-1)\u003c/span\u003e\u003c/p\u003e\u003cp\u003e\u003cb\u003ecategory\u003c/b\u003e: History and Physical \u003cspan style\u003d\"background: LightGoldenRodYellow; margin: 4px; border: 1px solid khaki\"\u003e (classCodes#History and Physical)\u003c/span\u003e\u003c/p\u003e\u003cp\u003e\u003cb\u003esubject\u003c/b\u003e: \u003ca href\u003d\"patient-example-xcda.html\"\u003ePatient/xcda\u003c/a\u003e \u0026quot;Henry LEVIN\u0026quot;\u003c/p\u003e\u003cp\u003e\u003cb\u003econtext\u003c/b\u003e: \u003ca href\u003d\"encounter-example-xcda.html\"\u003eEncounter/xcda\u003c/a\u003e\u003c/p\u003e\u003ch3\u003eEvents\u003c/h3\u003e\u003ctable class\u003d\"grid\"\u003e\u003ctr\u003e\u003ctd\u003e-\u003c/td\u003e\u003ctd\u003e\u003cb\u003eConcept\u003c/b\u003e\u003c/td\u003e\u003c/tr\u003e\u003ctr\u003e\u003ctd\u003e*\u003c/td\u003e\u003ctd\u003eArm \u003cspan style\u003d\"background: LightGoldenRodYellow; margin: 4px; border: 1px solid khaki\"\u003e (eventCodes#T-D8200)\u003c/span\u003e\u003c/td\u003e\u003c/tr\u003e\u003c/table\u003e\u003cp\u003e\u003cb\u003efacilityType\u003c/b\u003e: Outpatient \u003cspan style\u003d\"background: LightGoldenRodYellow; margin: 4px; border: 1px solid khaki\"\u003e (healthcareFacilityTypeCodes#Outpatient)\u003c/span\u003e\u003c/p\u003e\u003cp\u003e\u003cb\u003epracticeSetting\u003c/b\u003e: General Medicine \u003cspan style\u003d\"background: LightGoldenRodYellow; margin: 4px; border: 1px solid khaki\"\u003e (practiceSettingCodes#General Medicine)\u003c/span\u003e\u003c/p\u003e\u003cp\u003e\u003cb\u003eperiod\u003c/b\u003e: 2004-12-23T08:00:00+11:00 --\u0026gt; 2004-12-23T08:01:00+11:00\u003c/p\u003e\u003cp\u003e\u003cb\u003edate\u003c/b\u003e: 24 Dec 2005, 9:43:41 am\u003c/p\u003e\u003cp\u003e\u003cb\u003eauthor\u003c/b\u003e: \u003c/p\u003e\u003cul\u003e\u003cli\u003e\u003ca href\u003d\"practitioner-example-xcda1.html\"\u003ePractitioner/xcda1\u003c/a\u003e \u0026quot;Sherry DOPPLEMEYER\u0026quot;\u003c/li\u003e\u003cli\u003e\u003ca name\u003d\"a2\"\u003e \u003c/a\u003e\u003c/li\u003e\u003c/ul\u003e\u003cblockquote\u003e\u003cp/\u003e\u003cp\u003e\u003ca name\u003d\"a2\"\u003e \u003c/a\u003e\u003c/p\u003e\u003cp\u003e\u003cb\u003ename\u003c/b\u003e: Gerald Smitty \u003c/p\u003e\u003c/blockquote\u003e\u003ch3\u003eAttesters\u003c/h3\u003e\u003ctable class\u003d\"grid\"\u003e\u003ctr\u003e\u003ctd\u003e-\u003c/td\u003e\u003ctd\u003e\u003cb\u003eMode\u003c/b\u003e\u003c/td\u003e\u003ctd\u003e\u003cb\u003eParty\u003c/b\u003e\u003c/td\u003e\u003c/tr\u003e\u003ctr\u003e\u003ctd\u003e*\u003c/td\u003e\u003ctd\u003eOfficial \u003cspan style\u003d\"background: LightGoldenRodYellow; margin: 4px; border: 1px solid khaki\"\u003e (\u003ca href\u003d\"codesystem-composition-attestation-mode.html\"\u003eCompositionAttestationMode\u003c/a\u003e#official)\u003c/span\u003e\u003c/td\u003e\u003ctd\u003e\u003ca href\u003d\"organization-example-f001-burgers.html\"\u003eOrganization/f001\u003c/a\u003e \u0026quot;Burgers University Medical Center\u0026quot;\u003c/td\u003e\u003c/tr\u003e\u003c/table\u003e\u003cp\u003e\u003cb\u003ecustodian\u003c/b\u003e: \u003ca href\u003d\"organization-example-f001-burgers.html\"\u003eOrganization/f001\u003c/a\u003e \u0026quot;Burgers University Medical Center\u0026quot;\u003c/p\u003e\u003ch3\u003eRelatesTos\u003c/h3\u003e\u003ctable class\u003d\"grid\"\u003e\u003ctr\u003e\u003ctd\u003e-\u003c/td\u003e\u003ctd\u003e\u003cb\u003eCode\u003c/b\u003e\u003c/td\u003e\u003ctd\u003e\u003cb\u003eTarget\u003c/b\u003e\u003c/td\u003e\u003c/tr\u003e\u003ctr\u003e\u003ctd\u003e*\u003c/td\u003e\u003ctd\u003eAppends \u003cspan style\u003d\"background: LightGoldenRodYellow; margin: 4px; border: 1px solid khaki\"\u003e (\u003ca href\u003d\"codesystem-document-relationship-type.html\"\u003eDocumentRelationshipType\u003c/a\u003e#appends)\u003c/span\u003e\u003c/td\u003e\u003ctd\u003e\u003ca href\u003d\"documentreference-example.html\"\u003eDocumentReference/example\u003c/a\u003e\u003c/td\u003e\u003c/tr\u003e\u003c/table\u003e\u003cp\u003e\u003cb\u003edescription\u003c/b\u003e: Physical\u003c/p\u003e\u003cp\u003e\u003cb\u003esecurityLabel\u003c/b\u003e: very restricted \u003cspan style\u003d\"background: LightGoldenRodYellow; margin: 4px; border: 1px solid khaki\"\u003e (\u003ca href\u003d\"http://terminology.hl7.org/4.0.0/CodeSystem-v3-Confidentiality.html\"\u003eConfidentiality\u003c/a\u003e#V)\u003c/span\u003e\u003c/p\u003e\u003cblockquote\u003e\u003cp\u003e\u003cb\u003econtent\u003c/b\u003e\u003c/p\u003e\u003ch3\u003eAttachments\u003c/h3\u003e\u003ctable class\u003d\"grid\"\u003e\u003ctr\u003e\u003ctd\u003e-\u003c/td\u003e\u003ctd\u003e\u003cb\u003eContentType\u003c/b\u003e\u003c/td\u003e\u003ctd\u003e\u003cb\u003eLanguage\u003c/b\u003e\u003c/td\u003e\u003ctd\u003e\u003cb\u003eUrl\u003c/b\u003e\u003c/td\u003e\u003ctd\u003e\u003cb\u003eSize\u003c/b\u003e\u003c/td\u003e\u003ctd\u003e\u003cb\u003eHash\u003c/b\u003e\u003c/td\u003e\u003ctd\u003e\u003cb\u003eTitle\u003c/b\u003e\u003c/td\u003e\u003ctd\u003e\u003cb\u003eCreation\u003c/b\u003e\u003c/td\u003e\u003c/tr\u003e\u003ctr\u003e\u003ctd\u003e*\u003c/td\u003e\u003ctd\u003eapplication/hl7-v3+xml\u003c/td\u003e\u003ctd\u003een-US\u003c/td\u003e\u003ctd\u003e\u003ca href\u003d\"http://example.org/xds/mhd/Binary/07a6483f-732b-461e-86b6-edb665c45510\"\u003ehttp://example.org/xds/mhd/Binary/07a6483f-732b-461e-86b6-edb665c45510\u003c/a\u003e\u003c/td\u003e\u003ctd\u003e3654\u003c/td\u003e\u003ctd\u003e2jmj7l5rSw0yVb/vlWAYkK/YBwk\u003d\u003c/td\u003e\u003ctd\u003ePhysical\u003c/td\u003e\u003ctd\u003e2005-12-24T09:35:00+11:00\u003c/td\u003e\u003c/tr\u003e\u003c/table\u003e\u003ch3\u003eProfiles\u003c/h3\u003e\u003ctable class\u003d\"grid\"\u003e\u003ctr\u003e\u003ctd\u003e-\u003c/td\u003e\u003ctd\u003e\u003cb\u003eValue[x]\u003c/b\u003e\u003c/td\u003e\u003c/tr\u003e\u003ctr\u003e\u003ctd\u003e*\u003c/td\u003e\u003ctd\u003eHistory and Physical Specification (Details: urn:oid:1.3.6.1.4.1.19376.1.2.3 code urn:ihe:pcc:handp:2008 \u003d \u0027urn:ihe:pcc:handp:2008\u0027, stated as \u0027History and Physical Specification\u0027)\u003c/td\u003e\u003c/tr\u003e\u003c/table\u003e\u003c/blockquote\u003e\u003c/div\u003e"},"contained":[{"resourceType":"Practitioner","id":"a2","name":[{"family":"Smitty","given":["Gerald"]}]}],"extension":[{"url":"http://hl7.org/fhir/StructureDefinition/workflow-supportingInfo","valueReference":{"reference":"Patient/xcda","identifier":{"system":"urn:ietf:rfc:3986","value":"urn:oid:1.3.6.1.4.1.21367.2005.3.7.2345"}}},{"url":"http://hl7.org/fhir/StructureDefinition/documentreference-sourcepatient","valueReference":{"reference":"Patient/xcda"}}],"identifier":[{"type":{"text":"entryUUID"},"system":"urn:ietf:rfc:3986","value":"urn:oid:1.3.6.1.4.1.21367.2005.3.7.1234"},{"type":{"text":"uniqueId"},"system":"urn:ietf:rfc:3986","value":"urn:oid:1.3.6.1.4.1.21367.2005.3.7"}],"status":"current","docStatus":"preliminary","type":{"coding":[{"system":"http://loinc.org","code":"34108-1","display":"Outpatient Note"}]},"category":[{"coding":[{"system":"http://ihe.net/xds/connectathon/classCodes","code":"History and Physical","display":"History and Physical"}]}],"subject":{"reference":"Patient/xcda"},"context":[{"reference":"Encounter/xcda"}],"event":[{"concept":{"coding":[{"system":"http://ihe.net/xds/connectathon/eventCodes","code":"T-D8200","display":"Arm"}]}}],"facilityType":{"coding":[{"system":"http://www.ihe.net/xds/connectathon/healthcareFacilityTypeCodes","code":"Outpatient","display":"Outpatient"}]},"practiceSetting":{"coding":[{"system":"http://www.ihe.net/xds/connectathon/practiceSettingCodes","code":"General Medicine","display":"General Medicine"}]},"period":{"start":"2004-12-23T08:00:00+11:00","end":"2004-12-23T08:01:00+11:00"},"date":"2005-12-24T09:43:41+11:00","author":[{"reference":"Practitioner/xcda1"},{"reference":"#a2"}],"attester":[{"mode":{"coding":[{"system":"http://hl7.org/fhir/composition-attestation-mode","code":"official"}]},"party":{"reference":"Organization/f001"}}],"custodian":{"reference":"Organization/f001"},"relatesTo":[{"code":{"coding":[{"system":"http://hl7.org/fhir/document-relationship-type","code":"appends"}]},"target":{"reference":"DocumentReference/example"}}],"description":"Physical","securityLabel":[{"coding":[{"system":"http://terminology.hl7.org/CodeSystem/v3-Confidentiality","code":"V","display":"very restricted"}]}],"content":[{"attachment":{"contentType":"application/hl7-v3+xml","language":"en-US","url":"http://example.org/xds/mhd/Binary/07a6483f-732b-461e-86b6-edb665c45510","size":"3654","hash":"2jmj7l5rSw0yVb/vlWAYkK/YBwk\u003d","title":"Physical","creation":"2005-12-24T09:35:00+11:00"},"profile":[{"valueCoding":{"system":"urn:oid:1.3.6.1.4.1.19376.1.2.3","code":"urn:ihe:pcc:handp:2008","display":"History and Physical Specification"}}]}]}