{
  "resourceType": "List",
  "id": "f201",
  "text": {
    "status": "generated",
    "div": "\u003cdiv xmlns\u003d\"http://www.w3.org/1999/xhtml\"\u003e\u003ctable class\u003d\"clstu\"\u003e\u003ctr\u003e\u003ctd\u003eMode: snapshotStatus: currentCode: History of family member diseases\u003c/td\u003e\u003c/tr\u003e\u003ctr\u003e\u003ctd\u003eSubject: \u003ca href\u003d\"patient-example-f201-roel.html\"\u003ePatient/f201: Roel\u003c/a\u003e \u0026quot;Roel\u0026quot;\u003c/td\u003e\u003c/tr\u003e\u003c/table\u003e\u003ctable class\u003d\"grid\"\u003e\u003ctr style\u003d\"backgound-color: #eeeeee\"\u003e\u003ctd\u003e\u003cb\u003eItems\u003c/b\u003e\u003c/td\u003e\u003c/tr\u003e\u003ctr\u003e\u003ctd\u003e?ngen-16a?\u003c/td\u003e\u003c/tr\u003e\u003ctr\u003e\u003ctd\u003e?ngen-16a?\u003c/td\u003e\u003c/tr\u003e\u003c/table\u003e\u003c/div\u003e"
  },
  "contained": [
    {
      "resourceType": "FamilyMemberHistory",
      "id": "fmh-1",
      "status": "completed",
      "patient": {
        "reference": "Patient/f201",
        "display": "Roel"
      },
      "relationship": {
        "coding": [
          {
            "system": "http://snomed.info/sct",
            "code": "72705000",
            "display": "Mother"
          }
        ]
      },
      "deceasedBoolean": false,
      "condition": [
        {
          "code": {
            "coding": [
              {
                "system": "http://snomed.info/sct",
                "code": "39839004",
                "display": "Diaphragmatic hernia"
              }
            ]
          }
        }
      ]
    },
    {
      "resourceType": "FamilyMemberHistory",
      "id": "fmh-2",
      "status": "completed",
      "patient": {
        "reference": "Patient/f201",
        "display": "Roel"
      },
      "relationship": {
        "coding": [
          {
            "system": "http://snomed.info/sct",
            "code": "38048003",
            "display": "Uncle"
          }
        ]
      },
      "deceasedBoolean": true,
      "condition": [
        {
          "code": {
            "coding": [
              {
                "system": "http://snomed.info/sct",
                "code": "115665000",
                "display": "Atopy"
              }
            ]
          },
          "outcome": {
            "coding": [
              {
                "system": "http://snomed.info/sct",
                "code": "419099009",
                "display": "Died"
              }
            ]
          }
        }
      ]
    }
  ],
  "status": "current",
  "mode": "snapshot",
  "code": {
    "coding": [
      {
        "system": "http://loinc.org",
        "code": "8670-2",
        "display": "History of family member diseases"
      }
    ]
  },
  "subject": {
    "reference": "Patient/f201",
    "display": "Roel"
  },
  "note": [
    {
      "text": "Both parents, both brothers and both children (twin) are still alive."
    }
  ],
  "entry": [
    {
      "item": {
        "reference": "#fmh-1"
      }
    },
    {
      "item": {
        "reference": "#fmh-2"
      }
    }
  ],
  "meta": {
    "tag": [
      {
        "system": "http://terminology.hl7.org/CodeSystem/v3-ActReason",
        "code": "HTEST",
        "display": "test health data"
      }
    ]
  }
}