{
  "resourceType": "Bundle",
  "id": "drug-combo-product-bundle",
  "type": "collection",
  "entry": [
    {
      "fullUrl": "urn:uuid:e19deb42-7137-48b0-aef1-d37019d0316e",
      "resource": {
        "resourceType": "MedicinalProductDefinition",
        "id": "drug-combo-product-bundle-mp",
        "text": {
          "status": "generated",
          "div": "\u003cdiv xmlns\u003d\"http://www.w3.org/1999/xhtml\"\u003e\n\t\t\t\t\t\t\u003cp\u003e\n\t\t\t\t\t\t\t\u003cb\u003e\n\t\t\t\t\t\t\t\tGenerated Narrative\n\t\t\t\t\t\t\t\u003c/b\u003e\n\t\t\t\t\t\t\u003c/p\u003e\n\t\t\t\t\t\t\u003cp\u003e\n\t\t\t\t\t\t\t\u003cb\u003e\n\t\t\t\t\t\t\t\tid\n\t\t\t\t\t\t\t\u003c/b\u003e\n\t\t\t\t\t\t\t: drug-combo-product\n\t\t\t\t\t\t\u003c/p\u003e\n\t\t\t\t\t\t\u003cp\u003e\n\t\t\t\t\t\t\t\u003cb\u003e\n\t\t\t\t\t\t\t\tidentifier\n\t\t\t\t\t\t\t\u003c/b\u003e\n\t\t\t\t\t\t\t: id: ThrushTreatCombo\n\t\t\t\t\t\t\u003c/p\u003e\n\t\t\t\t\t\t\u003cp\u003e\n\t\t\t\t\t\t\t\u003cb\u003e\n\t\t\t\t\t\t\t\tcombinedPharmaceuticalDoseForm\n\t\t\t\t\t\t\t\u003c/b\u003e\n\t\t\t\t\t\t\t:\n\t\t\t\t\t\t\t\u003cspan title\u003d\"Codes: {http://example.org.uk/fhir/doseform Tablet and Cream for topical application}\"\u003e\n\t\t\t\t\t\t\t\tTablet and Cream for topical application\n\t\t\t\t\t\t\t\u003c/span\u003e\n\t\t\t\t\t\t\u003c/p\u003e\n\t\t\t\t\t\t\u003cp\u003e\n\t\t\t\t\t\t\t\u003cb\u003e\n\t\t\t\t\t\t\t\tpackagedMedicinalProduct\n\t\t\t\t\t\t\t\u003c/b\u003e\n\t\t\t\t\t\t\t:\n\t\t\t\t\t\t\t\u003ca name\u003d\"packageCombo\"/\u003e\n\t\t\t\t\t\t\u003c/p\u003e\n\t\t\t\t\t\t\u003cblockquote\u003e\n\t\t\t\t\t\t\t\u003cp\u003e\n\t\t\t\t\t\t\t\t\u003cb\u003e\n\t\t\t\t\t\t\t\t\tid\n\t\t\t\t\t\t\t\t\u003c/b\u003e\n\t\t\t\t\t\t\t\t:packageCombo\n\t\t\t\t\t\t\t\u003c/p\u003e\n\t\t\t\t\t\t\t\u003cblockquote\u003e\n\t\t\t\t\t\t\t\t\u003cp\u003e\n\t\t\t\t\t\t\t\t\t\u003cb\u003e\n\t\t\t\t\t\t\t\t\t\tpackage (outer)\n\t\t\t\t\t\t\t\t\t\u003c/b\u003e\n\t\t\t\t\t\t\t\t\u003c/p\u003e\n\t\t\t\t\t\t\t\t\u003cp\u003e\n\t\t\t\t\t\t\t\t\t\u003cb\u003e\n\t\t\t\t\t\t\t\t\t\ttype\n\t\t\t\t\t\t\t\t\t\u003c/b\u003e\n\t\t\t\t\t\t\t\t\t:\n\t\t\t\t\t\t\t\t\t\u003cspan title\u003d\"Codes: \"\u003e\n\t\t\t\t\t\t\t\t\t\tBox\n\t\t\t\t\t\t\t\t\t\u003c/span\u003e\n\t\t\t\t\t\t\t\t\u003c/p\u003e\n\t\t\t\t\t\t\t\t\u003cblockquote\u003e\n\t\t\t\t\t\t\t\t\t\u003cp\u003e\n\t\t\t\t\t\t\t\t\t\t\u003cb\u003e\n\t\t\t\t\t\t\t\t\t\t\tPackage (inner 1)\n\t\t\t\t\t\t\t\t\t\t\u003c/b\u003e\n\t\t\t\t\t\t\t\t\t\u003c/p\u003e\n\t\t\t\t\t\t\t\t\t\u003cp\u003e\n\t\t\t\t\t\t\t\t\t\t\u003cb\u003e\n\t\t\t\t\t\t\t\t\t\t\tType\n\t\t\t\t\t\t\t\t\t\t\u003c/b\u003e\n\t\t\t\t\t\t\t\t\t\t: Blister pack\n\t\t\t\t\t\t\t\t\t\u003c/p\u003e\n\t\t\t\t\t\t\t\t\t\u003cp\u003e\n\t\t\t\t\t\t\t\t\t\t\u003cb\u003e\n\t\t\t\t\t\t\t\t\t\t\tItems quantity\n\t\t\t\t\t\t\t\t\t\t\u003c/b\u003e\n\t\t\t\t\t\t\t\t\t\t: 1\n\t\t\t\t\t\t\t\t\t\u003c/p\u003e\n\t\t\t\t\t\t\t\t\t\u003cblockquote\u003e\n\t\t\t\t\t\t\t\t\t\t\u003cp\u003e\n\t\t\t\t\t\t\t\t\t\t\t\u003cb\u003e\n\t\t\t\t\t\t\t\t\t\t\t\tForm\n\t\t\t\t\t\t\t\t\t\t\t\u003c/b\u003e\n\t\t\t\t\t\t\t\t\t\t\t: Tablet\n\t\t\t\t\t\t\t\t\t\t\u003c/p\u003e\n\t\t\t\t\t\t\t\t\t\t\u003cblockquote\u003e\n\t\t\t\t\t\t\t\t\t\t\t\u003cp\u003e\n\t\t\t\t\t\t\t\t\t\t\t\t\u003cb\u003e\n\t\t\t\t\t\t\t\t\t\t\t\t\tIngredient\n\t\t\t\t\t\t\t\t\t\t\t\t\u003c/b\u003e\n\t\t\t\t\t\t\t\t\t\t\t\t: 150mg fluconazole\n\t\t\t\t\t\t\t\t\t\t\t\u003c/p\u003e\n\t\t\t\t\t\t\t\t\t\t\u003c/blockquote\u003e\n\t\t\t\t\t\t\t\t\t\u003c/blockquote\u003e\n\t\t\t\t\t\t\t\t\u003c/blockquote\u003e\n\t\t\t\t\t\t\t\t\u003cblockquote\u003e\n\t\t\t\t\t\t\t\t\t\u003cp\u003e\n\t\t\t\t\t\t\t\t\t\t\u003cb\u003e\n\t\t\t\t\t\t\t\t\t\t\tPackage (inner 2)\n\t\t\t\t\t\t\t\t\t\t\u003c/b\u003e\n\t\t\t\t\t\t\t\t\t\u003c/p\u003e\n\t\t\t\t\t\t\t\t\t\u003cp\u003e\n\t\t\t\t\t\t\t\t\t\t\u003cb\u003e\n\t\t\t\t\t\t\t\t\t\t\tType\n\t\t\t\t\t\t\t\t\t\t\u003c/b\u003e\n\t\t\t\t\t\t\t\t\t\t: Tube\n\t\t\t\t\t\t\t\t\t\u003c/p\u003e\n\t\t\t\t\t\t\t\t\t\u003cp\u003e\n\t\t\t\t\t\t\t\t\t\t\u003cb\u003e\n\t\t\t\t\t\t\t\t\t\t\tItems quantity\n\t\t\t\t\t\t\t\t\t\t\u003c/b\u003e\n\t\t\t\t\t\t\t\t\t\t: 20g\n\t\t\t\t\t\t\t\t\t\u003c/p\u003e\n\t\t\t\t\t\t\t\t\t\u003cblockquote\u003e\n\t\t\t\t\t\t\t\t\t\t\u003cp\u003e\n\t\t\t\t\t\t\t\t\t\t\t\u003cb\u003e\n\t\t\t\t\t\t\t\t\t\t\t\tPackage Item\n\t\t\t\t\t\t\t\t\t\t\t\u003c/b\u003e\n\t\t\t\t\t\t\t\t\t\t\t: Cap\n\t\t\t\t\t\t\t\t\t\t\u003c/p\u003e\n\t\t\t\t\t\t\t\t\t\u003c/blockquote\u003e\n\t\t\t\t\t\t\t\t\t\u003cblockquote\u003e\n\t\t\t\t\t\t\t\t\t\t\u003cp\u003e\n\t\t\t\t\t\t\t\t\t\t\t\u003cb\u003e\n\t\t\t\t\t\t\t\t\t\t\t\tForm\n\t\t\t\t\t\t\t\t\t\t\t\u003c/b\u003e\n\t\t\t\t\t\t\t\t\t\t\t: Cream for topical application\n\t\t\t\t\t\t\t\t\t\t\u003c/p\u003e\n\t\t\t\t\t\t\t\t\t\t\u003cblockquote\u003e\n\t\t\t\t\t\t\t\t\t\t\t\u003cp\u003e\n\t\t\t\t\t\t\t\t\t\t\t\t\u003cb\u003e\n\t\t\t\t\t\t\t\t\t\t\t\t\tIngredient\n\t\t\t\t\t\t\t\t\t\t\t\t\u003c/b\u003e\n\t\t\t\t\t\t\t\t\t\t\t\t: 2% w/w clotrimazole\n\t\t\t\t\t\t\t\t\t\t\t\u003c/p\u003e\n\t\t\t\t\t\t\t\t\t\t\u003c/blockquote\u003e\n\t\t\t\t\t\t\t\t\t\u003c/blockquote\u003e\n\t\t\t\t\t\t\t\t\u003c/blockquote\u003e\n\t\t\t\t\t\t\t\u003c/blockquote\u003e\n\t\t\t\t\t\t\u003c/blockquote\u003e\n\t\t\t\t\t\t\u003ch3\u003e\n\t\t\t\t\t\t\tNames\n\t\t\t\t\t\t\u003c/h3\u003e\n\t\t\t\t\t\t\u003ctable class\u003d\"grid\"\u003e\n\t\t\t\t\t\t\t\u003ctr\u003e\n\t\t\t\t\t\t\t\t\u003ctd\u003e\n\t\t\t\t\t\t\t\t\t-\n\t\t\t\t\t\t\t\t\u003c/td\u003e\n\t\t\t\t\t\t\t\t\u003ctd\u003e\n\t\t\t\t\t\t\t\t\t\u003cb\u003e\n\t\t\t\t\t\t\t\t\t\tProductName\n\t\t\t\t\t\t\t\t\t\u003c/b\u003e\n\t\t\t\t\t\t\t\t\u003c/td\u003e\n\t\t\t\t\t\t\t\u003c/tr\u003e\n\t\t\t\t\t\t\t\u003ctr\u003e\n\t\t\t\t\t\t\t\t\u003ctd\u003e\n\t\t\t\t\t\t\t\t\t*\n\t\t\t\t\t\t\t\t\u003c/td\u003e\n\t\t\t\t\t\t\t\t\u003ctd\u003e\n\t\t\t\t\t\t\t\t\tThrushTreat Combo\n\t\t\t\t\t\t\t\t\u003c/td\u003e\n\t\t\t\t\t\t\t\u003c/tr\u003e\n\t\t\t\t\t\t\u003c/table\u003e\n\t\t\t\t\t\u003c/div\u003e"
        },
        "identifier": [
          {
            "system": "http://example.org.uk/fhir/product",
            "value": "ThrushTreatCombo"
          }
        ],
        "combinedPharmaceuticalDoseForm": {
          "coding": [
            {
              "system": "http://example.org.uk/fhir/doseform",
              "code": "Tablet and Cream for topical application"
            }
          ]
        },
        "name": [
          {
            "productName": "ThrushTreat Combo"
          }
        ]
      }
    },
    {
      "fullUrl": "urn:uuid:7d95129b-ea17-48fb-844c-70317219723d",
      "resource": {
        "resourceType": "PackagedProductDefinition",
        "id": "packageCombo",
        "text": {
          "status": "generated",
          "div": "\u003cdiv xmlns\u003d\"http://www.w3.org/1999/xhtml\"\u003e\n\t\t\t\t\t\t(left blank to stop example creating something automatically)\n\t\t\t\t\t\u003c/div\u003e"
        },
        "packageFor": [
          {
            "reference": "MedicinalProductDefinition/drug-combo-product-bundle-mp"
          }
        ],
        "packaging": {
          "type": {
            "coding": [
              {
                "code": "Box"
              }
            ]
          },
          "packaging": [
            {
              "type": {
                "coding": [
                  {
                    "code": "blister pack"
                  }
                ]
              },
              "containedItem": [
                {
                  "item": {
                    "reference": {
                      "reference": "ManufacturedItemDefinition/tabletItem"
                    }
                  },
                  "amount": {
                    "value": 1
                  }
                }
              ]
            },
            {
              "type": {
                "coding": [
                  {
                    "code": "tube"
                  }
                ]
              },
              "containedItem": [
                {
                  "item": {
                    "reference": {
                      "reference": "ManufacturedItemDefinition/creamItem"
                    }
                  },
                  "amount": {
                    "value": 1
                  }
                }
              ]
            }
          ]
        }
      }
    },
    {
      "fullUrl": "urn:uuid:4b9d12e2-c4c3-4533-85d0-7f78a6b91a53",
      "resource": {
        "resourceType": "ManufacturedItemDefinition",
        "id": "tabletItem",
        "text": {
          "status": "generated",
          "div": "\u003cdiv xmlns\u003d\"http://www.w3.org/1999/xhtml\"\u003e\n\t\t\t\t\t\t(left blank to stop example creating something automatically)\n\t\t\t\t\t\u003c/div\u003e"
        },
        "status": "active",
        "manufacturedDoseForm": {
          "coding": [
            {
              "system": "http://example.org.uk/fhir/doseform",
              "code": "tablet"
            }
          ]
        }
      }
    },
    {
      "fullUrl": "urn:uuid:9a66d8b9-1793-4e43-8cc3-89af55d86d0c",
      "resource": {
        "resourceType": "ManufacturedItemDefinition",
        "id": "creamItem",
        "text": {
          "status": "generated",
          "div": "\u003cdiv xmlns\u003d\"http://www.w3.org/1999/xhtml\"\u003e\n\t\t\t\t\t\t(left blank to stop example creating something automatically)\n\t\t\t\t\t\u003c/div\u003e"
        },
        "status": "active",
        "manufacturedDoseForm": {
          "coding": [
            {
              "system": "http://example.org.uk/fhir/doseform",
              "code": "Cream for topical applcation"
            }
          ]
        }
      }
    }
  ],
  "meta": {
    "tag": [
      {
        "system": "http://terminology.hl7.org/CodeSystem/v3-ActReason",
        "code": "HTEST",
        "display": "test health data"
      }
    ]
  }
}