{
  "resourceType": "Bundle",
  "id": "0f322dbe-4f8d-4cbd-9ecb-bc8dc6f65f6a",
  "type": "message",
  "timestamp": "2020-04-17T10:24:13.1882432-05:00",
  "entry": [
    {
      "fullUrl": "urn:uuid:801728e4-75e9-42e6-b6d0-0cc3e835a70d",
      "resource": {
        "resourceType": "MessageHeader",
        "id": "801728e4-75e9-42e6-b6d0-0cc3e835a70d",
        "text": {
          "status": "generated",
          "div": "\u003cdiv xmlns\u003d\"http://www.w3.org/1999/xhtml\"\u003e\u003cp\u003e\u003cb\u003eGenerated Narrative: MessageHeader\u003c/b\u003e\u003ca name\u003d\"801728e4-75e9-42e6-b6d0-0cc3e835a70d\"\u003e \u003c/a\u003e\u003c/p\u003e\u003cdiv style\u003d\"display: inline-block; background-color: #d9e0e7; padding: 6px; margin: 4px; border: 1px solid #8da1b4; border-radius: 5px; line-height: 60%\"\u003e\u003cp style\u003d\"margin-bottom: 0px\"\u003eResource MessageHeader \u0026quot;801728e4-75e9-42e6-b6d0-0cc3e835a70d\u0026quot; \u003c/p\u003e\u003c/div\u003e\u003cp\u003e\u003cb\u003eevent\u003c/b\u003e: subscription-notification (Details: http://example.org/fhir/message-events code subscription-notification \u003d \u0027subscription-notification\u0027, stated as \u0027null\u0027)\u003c/p\u003e\u003ch3\u003eSources\u003c/h3\u003e\u003ctable class\u003d\"grid\"\u003e\u003ctr\u003e\u003ctd\u003e-\u003c/td\u003e\u003ctd\u003e\u003cb\u003eEndpoint\u003c/b\u003e\u003c/td\u003e\u003c/tr\u003e\u003ctr\u003e\u003ctd\u003e*\u003c/td\u003e\u003ctd\u003e\u003ca href\u003d\"http://example.org/FHIR/R5\"\u003ehttp://example.org/FHIR/R5\u003c/a\u003e\u003c/td\u003e\u003c/tr\u003e\u003c/table\u003e\u003cp\u003e\u003cb\u003efocus\u003c/b\u003e: \u003ca href\u003d\"broken-link.html\"\u003eurn:uuid:c13b0b59-525c-4e41-b874-b5b87538a5b7\u003c/a\u003e\u003c/p\u003e\u003c/div\u003e"
        },
        "eventCoding": {
          "system": "http://example.org/fhir/message-events",
          "code": "subscription-notification"
        },
        "source": {
          "endpoint": "http://example.org/FHIR/R5"
        },
        "focus": [
          {
            "reference": "urn:uuid:c13b0b59-525c-4e41-b874-b5b87538a5b7"
          }
        ]
      }
    },
    {
      "fullUrl": "urn:uuid:c13b0b59-525c-4e41-b874-b5b87538a5b7",
      "resource": {
        "resourceType": "Bundle",
        "id": "c13b0b59-525c-4e41-b874-b5b87538a5b7",
        "type": "subscription-notification",
        "timestamp": "2020-04-17T10:24:13.1882432-05:00",
        "entry": [
          {
            "fullUrl": "urn:uuid:bef7e5fb-b5ad-4b59-a618-1bace2bbf5c0",
            "resource": {
              "resourceType": "SubscriptionStatus",
              "id": "bef7e5fb-b5ad-4b59-a618-1bace2bbf5c0",
              "status": "active",
              "type": "event-notification",
              "eventsSinceSubscriptionStart": "2",
              "notificationEvent": [
                {
                  "eventNumber": "2",
                  "focus": {
                    "reference": "http://example.org/FHIR/R5/Encounter/2"
                  }
                }
              ],
              "subscription": {
                "reference": "http://example.org/FHIR/R5/Subscription/123"
              },
              "topic": "http://example.org/FHIR/R5/SubscriptionTopic/admission"
            }
          },
          {
            "fullUrl": "https://example.org/FHIR/R5/Encounter/2",
            "resource": {
              "resourceType": "Encounter",
              "id": "2",
              "meta": {
                "versionId": "1",
                "lastUpdated": "2019-08-07T10:49:22Z"
              },
              "status": "in-progress",
              "class": [
                {
                  "coding": [
                    {
                      "system": "http://terminology.hl7.org/CodeSystem/v3-ActCode",
                      "code": "VR",
                      "display": "virtual"
                    }
                  ]
                }
              ],
              "subject": {
                "reference": "Patient/ABC"
              }
            },
            "request": {
              "method": "PUT",
              "url": "Encounter/2"
            },
            "response": {
              "status": "201"
            }
          }
        ]
      }
    }
  ],
  "meta": {
    "tag": [
      {
        "system": "http://terminology.hl7.org/CodeSystem/v3-ActReason",
        "code": "HTEST",
        "display": "test health data"
      }
    ]
  }
}