{
  "resourceType": "Bundle",
  "id": "787e69f6-81a8-44e4-b404-257013dec332",
  "type": "subscription-notification",
  "timestamp": "2020-04-17T10:24:13.1882432-05:00",
  "entry": [
    {
      "fullUrl": "urn:uuid:63c7e4fb-0a83-4cd9-9f42-cdcf7d5cd3ed",
      "resource": {
        "resourceType": "SubscriptionStatus",
        "id": "815477f2-a94c-4197-a82a-9f974155debc",
        "text": {
          "status": "generated",
          "div": "\u003cdiv xmlns\u003d\"http://www.w3.org/1999/xhtml\"\u003e\u003cp\u003e\u003cb\u003eGenerated Narrative: SubscriptionStatus\u003c/b\u003e\u003ca name\u003d\"815477f2-a94c-4197-a82a-9f974155debc\"\u003e \u003c/a\u003e\u003c/p\u003e\u003cdiv style\u003d\"display: inline-block; background-color: #d9e0e7; padding: 6px; margin: 4px; border: 1px solid #8da1b4; border-radius: 5px; line-height: 60%\"\u003e\u003cp style\u003d\"margin-bottom: 0px\"\u003eResource SubscriptionStatus \u0026quot;815477f2-a94c-4197-a82a-9f974155debc\u0026quot; \u003c/p\u003e\u003c/div\u003e\u003cp\u003e\u003cb\u003estatus\u003c/b\u003e: active\u003c/p\u003e\u003cp\u003e\u003cb\u003etype\u003c/b\u003e: query-event\u003c/p\u003e\u003cp\u003e\u003cb\u003eeventsSinceSubscriptionStart\u003c/b\u003e: 310\u003c/p\u003e\u003cblockquote\u003e\u003cp\u003e\u003cb\u003enotificationEvent\u003c/b\u003e\u003c/p\u003e\u003cp\u003e\u003cb\u003eeventNumber\u003c/b\u003e: 307\u003c/p\u003e\u003cp\u003e\u003cb\u003efocus\u003c/b\u003e: \u003ca href\u003d\"broken-link.html\"\u003ehttp://example.org/FHIR/R5/Encounter/307\u003c/a\u003e\u003c/p\u003e\u003cp\u003e\u003cb\u003eadditionalContext\u003c/b\u003e: \u003ca href\u003d\"broken-link.html\"\u003ehttp://example.org/FHIR/R5/Patient/ABC\u003c/a\u003e\u003c/p\u003e\u003c/blockquote\u003e\u003cblockquote\u003e\u003cp\u003e\u003cb\u003enotificationEvent\u003c/b\u003e\u003c/p\u003e\u003cp\u003e\u003cb\u003eeventNumber\u003c/b\u003e: 308\u003c/p\u003e\u003cp\u003e\u003cb\u003efocus\u003c/b\u003e: \u003ca href\u003d\"broken-link.html\"\u003ehttp://example.org/FHIR/R5/Encounter/308\u003c/a\u003e\u003c/p\u003e\u003cp\u003e\u003cb\u003eadditionalContext\u003c/b\u003e: \u003ca href\u003d\"broken-link.html\"\u003ehttp://example.org/FHIR/R5/Patient/ABC\u003c/a\u003e\u003c/p\u003e\u003c/blockquote\u003e\u003cp\u003e\u003cb\u003esubscription\u003c/b\u003e: \u003ca href\u003d\"broken-link.html\"\u003ehttp://example.org/FHIR/R5/Subscription/123\u003c/a\u003e\u003c/p\u003e\u003cp\u003e\u003cb\u003etopic\u003c/b\u003e: \u003ca href\u003d\"http://example.org/FHIR/R5/SubscriptionTopic/admission\"\u003ehttp://example.org/FHIR/R5/SubscriptionTopic/admission\u003c/a\u003e\u003c/p\u003e\u003c/div\u003e"
        },
        "status": "active",
        "type": "query-event",
        "eventsSinceSubscriptionStart": "310",
        "notificationEvent": [
          {
            "eventNumber": "307",
            "focus": {
              "reference": "http://example.org/FHIR/R5/Encounter/307"
            },
            "additionalContext": [
              {
                "reference": "http://example.org/FHIR/R5/Patient/ABC"
              }
            ]
          },
          {
            "eventNumber": "308",
            "focus": {
              "reference": "http://example.org/FHIR/R5/Encounter/308"
            },
            "additionalContext": [
              {
                "reference": "http://example.org/FHIR/R5/Patient/ABC"
              }
            ]
          }
        ],
        "subscription": {
          "reference": "http://example.org/FHIR/R5/Subscription/123"
        },
        "topic": "http://example.org/FHIR/R5/SubscriptionTopic/admission"
      }
    },
    {
      "fullUrl": "https://example.org/FHIR/R5/Encounter/307",
      "resource": {
        "resourceType": "Encounter",
        "id": "307",
        "meta": {
          "versionId": "1",
          "lastUpdated": "2019-08-07T10:49:22Z"
        },
        "text": {
          "status": "generated",
          "div": "\u003cdiv xmlns\u003d\"http://www.w3.org/1999/xhtml\"\u003e\u003cp\u003e\u003cb\u003eGenerated Narrative: Encounter\u003c/b\u003e\u003ca name\u003d\"307\"\u003e \u003c/a\u003e\u003c/p\u003e\u003cdiv style\u003d\"display: inline-block; background-color: #d9e0e7; padding: 6px; margin: 4px; border: 1px solid #8da1b4; border-radius: 5px; line-height: 60%\"\u003e\u003cp style\u003d\"margin-bottom: 0px\"\u003eResource Encounter \u0026quot;307\u0026quot; Version \u0026quot;1\u0026quot; Updated \u0026quot;2019-08-07T10:49:22Z\u0026quot; \u003c/p\u003e\u003c/div\u003e\u003cp\u003e\u003cb\u003estatus\u003c/b\u003e: in-progress\u003c/p\u003e\u003cp\u003e\u003cb\u003eclass\u003c/b\u003e: virtual \u003cspan style\u003d\"background: LightGoldenRodYellow; margin: 4px; border: 1px solid khaki\"\u003e (\u003ca href\u003d\"http://terminology.hl7.org/4.0.0/CodeSystem-v3-ActCode.html\"\u003eActCode\u003c/a\u003e#VR)\u003c/span\u003e\u003c/p\u003e\u003cp\u003e\u003cb\u003esubject\u003c/b\u003e: \u003ca href\u003d\"broken-link.html\"\u003ePatient/ABC\u003c/a\u003e\u003c/p\u003e\u003c/div\u003e"
        },
        "status": "in-progress",
        "class": [
          {
            "coding": [
              {
                "system": "http://terminology.hl7.org/CodeSystem/v3-ActCode",
                "code": "VR",
                "display": "virtual"
              }
            ]
          }
        ],
        "subject": {
          "reference": "Patient/ABC"
        }
      },
      "request": {
        "method": "PUT",
        "url": "Encounter/307"
      },
      "response": {
        "status": "201"
      }
    },
    {
      "fullUrl": "https://example.org/FHIR/R5/Patient/ABC",
      "resource": {
        "resourceType": "Patient",
        "id": "ABC",
        "meta": {
          "versionId": "1",
          "lastUpdated": "2019-08-07T10:49:22Z"
        },
        "text": {
          "status": "generated",
          "div": "\u003cdiv xmlns\u003d\"http://www.w3.org/1999/xhtml\"\u003e\u003cp style\u003d\"border: 1px #661aff solid; background-color: #e6e6ff; padding: 10px;\"\u003e\u003cb\u003ePatient Example (OFFICIAL)\u003c/b\u003e (no stated gender), DoB Unknown\u003c/p\u003e\u003chr/\u003e\u003c/div\u003e"
        },
        "name": [
          {
            "use": "official",
            "family": "Example",
            "given": [
              "Patient"
            ]
          }
        ]
      }
    },
    {
      "fullUrl": "https://example.org/FHIR/R5/Encounter/308",
      "resource": {
        "resourceType": "Encounter",
        "id": "308",
        "meta": {
          "versionId": "1",
          "lastUpdated": "2019-08-07T10:49:22Z"
        },
        "text": {
          "status": "generated",
          "div": "\u003cdiv xmlns\u003d\"http://www.w3.org/1999/xhtml\"\u003e\u003cp\u003e\u003cb\u003eGenerated Narrative: Encounter\u003c/b\u003e\u003ca name\u003d\"308\"\u003e \u003c/a\u003e\u003c/p\u003e\u003cdiv style\u003d\"display: inline-block; background-color: #d9e0e7; padding: 6px; margin: 4px; border: 1px solid #8da1b4; border-radius: 5px; line-height: 60%\"\u003e\u003cp style\u003d\"margin-bottom: 0px\"\u003eResource Encounter \u0026quot;308\u0026quot; Version \u0026quot;1\u0026quot; Updated \u0026quot;2019-08-07T10:49:22Z\u0026quot; \u003c/p\u003e\u003c/div\u003e\u003cp\u003e\u003cb\u003estatus\u003c/b\u003e: in-progress\u003c/p\u003e\u003cp\u003e\u003cb\u003eclass\u003c/b\u003e: virtual \u003cspan style\u003d\"background: LightGoldenRodYellow; margin: 4px; border: 1px solid khaki\"\u003e (\u003ca href\u003d\"http://terminology.hl7.org/4.0.0/CodeSystem-v3-ActCode.html\"\u003eActCode\u003c/a\u003e#VR)\u003c/span\u003e\u003c/p\u003e\u003cp\u003e\u003cb\u003esubject\u003c/b\u003e: \u003ca href\u003d\"broken-link.html\"\u003ePatient/ABC\u003c/a\u003e\u003c/p\u003e\u003c/div\u003e"
        },
        "status": "in-progress",
        "class": [
          {
            "coding": [
              {
                "system": "http://terminology.hl7.org/CodeSystem/v3-ActCode",
                "code": "VR",
                "display": "virtual"
              }
            ]
          }
        ],
        "subject": {
          "reference": "Patient/ABC"
        }
      },
      "request": {
        "method": "PUT",
        "url": "Encounter/308"
      },
      "response": {
        "status": "201"
      }
    }
  ],
  "meta": {
    "tag": [
      {
        "system": "http://terminology.hl7.org/CodeSystem/v3-ActReason",
        "code": "HTEST",
        "display": "test health data"
      }
    ]
  }
}