{
  "resourceType": "PlanDefinition",
  "id": "example-cardiology-os",
  "text": {
    "status": "generated",
    "div": "\u003cdiv xmlns\u003d\"http://www.w3.org/1999/xhtml\"\u003e\u003cp\u003e\u003cb\u003eGenerated Narrative: PlanDefinition\u003c/b\u003e\u003ca name\u003d\"example-cardiology-os\"\u003e \u003c/a\u003e\u003c/p\u003e\u003cdiv style\u003d\"display: inline-block; background-color: #d9e0e7; padding: 6px; margin: 4px; border: 1px solid #8da1b4; border-radius: 5px; line-height: 60%\"\u003e\u003cp style\u003d\"margin-bottom: 0px\"\u003eResource PlanDefinition \u0026quot;example-cardiology-os\u0026quot; \u003c/p\u003e\u003c/div\u003e\u003cp\u003e\u003cb\u003eurl\u003c/b\u003e: \u003ccode\u003ehttp://va.gov/kas/orderset/B5-Cardiology-ChestPainCAD-OS\u003c/code\u003e\u003c/p\u003e\u003cp\u003e\u003cb\u003eidentifier\u003c/b\u003e: id: urn:oid:2.16.840.1.113883.4.642.11.8, id: bb7ccea6-9744-4743-854a-bcffd87191f6 (use: OFFICIAL), \u003cspan title\u003d\" identifierName\u003d\u0026quot;Contract: VA118-16-D-1008, Task Order (TO): VA-118-16-F-1008-0007, CLIN0004AG\u0026quot;  \"\u003eid: CLIN0004AG\u003c/span\u003e, \u003cspan title\u003d\" identifierName\u003d\u0026quot;Jira KP-914\u0026quot;  \"\u003eid: KP-914\u003c/span\u003e\u003c/p\u003e\u003cp\u003e\u003cb\u003eversion\u003c/b\u003e: 0.1\u003c/p\u003e\u003cp\u003e\u003cb\u003ename\u003c/b\u003e: ChestPainCoronaryArteryDiseaseOrderSetKNART\u003c/p\u003e\u003cp\u003e\u003cb\u003etitle\u003c/b\u003e: Chest Pain (CP) - Coronary Artery Disease (CAD) Order Set KNART\u003c/p\u003e\u003cp\u003e\u003cb\u003etype\u003c/b\u003e: Order Set \u003cspan style\u003d\"background: LightGoldenRodYellow; margin: 4px; border: 1px solid khaki\"\u003e (\u003ca href\u003d\"http://terminology.hl7.org/4.0.0/CodeSystem-plan-definition-type.html\"\u003ePlanDefinitionType\u003c/a\u003e#order-set)\u003c/span\u003e\u003c/p\u003e\u003cp\u003e\u003cb\u003estatus\u003c/b\u003e: active\u003c/p\u003e\u003cp\u003e\u003cb\u003edate\u003c/b\u003e: 2017-08-29\u003c/p\u003e\u003cp\u003e\u003cb\u003epublisher\u003c/b\u003e: Department of Veterans Affairs\u003c/p\u003e\u003cp\u003e\u003cb\u003edescription\u003c/b\u003e: The Cardiology chest pain (CP) and coronary artery disease (CAD) group of KNARTs are     intended to assist primary care providers in the management of adult patients with stable     chest pain (with or without known CAD); aid in determining when a cardiology consultation is     appropriate; provide guidance for initial noninvasive diagnostic orders (stress testing) and     provide a structured documentation template for the process. Stable patients with cardiac     chest pain require risk stratification, office-based workup, initiation of disease-specific     medications, and subspecialty referral to a cardiologist.\u003c/p\u003e\u003ch3\u003eUseContexts\u003c/h3\u003e\u003ctable class\u003d\"grid\"\u003e\u003ctr\u003e\u003ctd\u003e-\u003c/td\u003e\u003ctd\u003e\u003cb\u003eCode\u003c/b\u003e\u003c/td\u003e\u003ctd\u003e\u003cb\u003eValue[x]\u003c/b\u003e\u003c/td\u003e\u003c/tr\u003e\u003ctr\u003e\u003ctd\u003e*\u003c/td\u003e\u003ctd\u003eClinical Focus (Details: http://terminology.hl7.org/CodeSystem/usage-context-type code focus \u003d \u0027Clinical Focus\u0027, stated as \u0027null\u0027)\u003c/td\u003e\u003ctd\u003eappropriate snomed condition \u003cspan style\u003d\"background: LightGoldenRodYellow; margin: 4px; border: 1px solid khaki\"\u003e (\u003ca href\u003d\"https://browser.ihtsdotools.org/\"\u003eSNOMED CT\u003c/a\u003e#look up value)\u003c/span\u003e\u003c/td\u003e\u003c/tr\u003e\u003c/table\u003e\u003cp\u003e\u003cb\u003eusage\u003c/b\u003e: The Cardiology chest pain (CP) and coronary artery disease (CAD) group of KNARTs are intended to assist primary care providers in the management of adult patients with stable chest pain (with or without known CAD); aid in determining when a cardiology consultation is appropriate; provide guidance for initial noninvasive diagnostic orders (stress testing) and provide a structured documentation template for the process. Stable patients with cardiac chest pain require risk stratification, office-based workup, initiation of disease-specific medications, and subspecialty referral to a cardiologist. This context excludes emergent patients (new/ongoing/unstable pattern CP). Included are those patients with stable CP with or without known CAD, to be considered for evaluation by cardiology.\u003c/p\u003e\u003cp\u003e\u003cb\u003ecopyright\u003c/b\u003e: © Copyright Cognitive Medical Systems, Inc. 9444 Waples Street Suite 300 San Diego, CA 92121\u003c/p\u003e\u003cp\u003e\u003cb\u003eauthor\u003c/b\u003e: Bruce Bray MD: , Scott Wall MD: , Aiden Abidov MD, PhD: \u003c/p\u003e\u003cblockquote\u003e\u003cp\u003e\u003cb\u003erelatedArtifact\u003c/b\u003e\u003c/p\u003e\u003cp\u003e\u003cb\u003etype\u003c/b\u003e: derived-from\u003c/p\u003e\u003cp\u003e\u003cb\u003edisplay\u003c/b\u003e: Cardiology: Chest Pain (CP) / Coronary Artery Disease (CAD) Clinical Content White Paper\u003c/p\u003e\u003c/blockquote\u003e\u003cblockquote\u003e\u003cp\u003e\u003cb\u003erelatedArtifact\u003c/b\u003e\u003c/p\u003e\u003cp\u003e\u003cb\u003etype\u003c/b\u003e: justification\u003c/p\u003e\u003cp\u003e\u003cb\u003edisplay\u003c/b\u003e: \u003cspan title\u003d\"  used the description from HeD example for display here \"\u003eOutcome CVD (coronary death, myocardial infarction, coronary insufficiency, angina, ischemic stroke, hemorrhagic stroke, transient ischemic attack, peripheral artery disease, heart failure)\u003c/span\u003e\u003c/p\u003e\u003cp\u003e\u003cb\u003ecitation\u003c/b\u003e: Cardiovascular disease          (10-year risk) [Internet].: Framingham Heart Study; cited 2017]. Available from: https://www.framinghamheartstudy.org/risk-functions/cardiovascular-disease/10-year-risk.php.\u003c/p\u003e\u003c/blockquote\u003e\u003cblockquote\u003e\u003cp\u003e\u003cb\u003erelatedArtifact\u003c/b\u003e\u003c/p\u003e\u003cp\u003e\u003cb\u003etype\u003c/b\u003e: justification\u003c/p\u003e\u003cp\u003e\u003cb\u003edisplay\u003c/b\u003e: \u003cspan title\u003d\"   no identifier field available, this is an example of what is in the source OS\n     \u0026lt;identifiers\u0026gt;\n         \u0026lt;identifier root\u003d\u0026quot;https://doi.org/10.1161/CIRCULATIONAHA.107.699579\u0026quot;\n            identifierName\u003d\u0026quot;DOI\u0026quot;/\u0026gt;\n         \u0026lt;identifier root\u003d\u0026quot;D\u0027Agostino RB et al., 2008\u0026quot;\n            identifierName\u003d\u0026quot;LocalDocBook\u0026quot;/\u0026gt;\n      \u0026lt;/identifiers\u0026gt;  \u0026amp;#10;  used the title from HeD example for display here \"\u003eGeneral cardiovascular risk profile for use in primary care: the Framingham Heart Study\u003c/span\u003e\u003c/p\u003e\u003cp\u003e\u003cb\u003ecitation\u003c/b\u003e: Cardiovascular disease          (10-year risk) [Internet].: Framingham Heart Study; cited 2017]. Available from: https://www.framinghamheartstudy.org/risk-functions/cardiovascular-disease/10-year-risk.php.\u003c/p\u003e\u003c/blockquote\u003e\u003cblockquote\u003e\u003cp\u003e\u003cb\u003erelatedArtifact\u003c/b\u003e\u003c/p\u003e\u003cp\u003e\u003cb\u003etype\u003c/b\u003e: justification\u003c/p\u003e\u003cp\u003e\u003cb\u003edisplay\u003c/b\u003e: \u003cspan title\u003d\"   no identifier field available, this is an example of what is in the source OS\n     \u0026lt;identifiers\u0026gt;\n         \u0026lt;identifier root\u003d\u0026quot;10.1016/j.jtcvs.2014.11.002\u0026quot; identifierName\u003d\u0026quot;DOI\u0026quot;/\u0026gt;\n         \u0026lt;identifier root\u003d\u0026quot;Fihn et al., 2015\u0026quot; identifierName\u003d\u0026quot;LocalDocBook\u0026quot;/\u0026gt;\n      \u0026lt;/identifiers\u0026gt;  \u0026amp;#10;  used the title from HeD example for display here \"\u003e2014 ACC/AHA/AATS/PCNA/SCAI/STS focused update of the guideline for the diagnosis and management of patients with stable ischemic heart disease: a report of the American College of Cardiology/American Heart Association Task Force on Practice Guidelines, and the American Association for Thoracic Surgery, Preventive Cardiovascular Nurses Association, Society for Cardiovascular Angiography and Interventions, and Society of Thoracic Surgeons\u003c/span\u003e\u003c/p\u003e\u003cp\u003e\u003cb\u003ecitation\u003c/b\u003e: \u003cspan title\u003d\"  here is the description from the source OS, no spot for it\n        \u0026lt;description\n            value\u003d\u0026quot;A report of the American College of Cardiology/American Heart Association Task Force on Practice Guidelines, and the American Association for Thoracic Surgery, Preventive Cardiovascular Nurses Association, Society for Cardiovascular Angiography and Interventions, and Society of Thoracic Surgeons\u0026quot;/\u0026gt;\n       \"\u003eFihn SD, Blankenship JC, Alexander KP, Bittl JA, Byrne JG, Fletcher BJ, et al. 2014 ACC/AHA/AATS/PCNA/SCAI/STS focused update of the guideline for the diagnosis and management of patients with stable ischemic heart disease: A report of the american college of cardiology/american heart association task force on practice guidelines, and the american association for thoracic surgery, preventive cardiovascular nurses association, society for cardiovascular angiography and interventions, and society of thoracic surgeons. J Thorac Cardiovasc Surg. 2015 March 01;149(3):5.\u003c/span\u003e\u003c/p\u003e\u003c/blockquote\u003e\u003cblockquote\u003e\u003cp\u003e\u003cb\u003erelatedArtifact\u003c/b\u003e\u003c/p\u003e\u003cp\u003e\u003cb\u003etype\u003c/b\u003e: justification\u003c/p\u003e\u003cp\u003e\u003cb\u003edisplay\u003c/b\u003e: \u003cspan title\u003d\"   no identifier field available, this is an example of what is in the source OS\n     \u0026lt;identifiers\u0026gt;\n        \u0026lt;identifier root\u003d\u0026quot;https://doi.org/10.1016/S0735-1097(02)02164-2\u0026quot;\n                   identifierName\u003d\u0026quot;DOI\u0026quot;/\u0026gt;\n         \u0026lt;identifier root\u003d\u0026quot;Gibbons et al., 2002\u0026quot; identifierName\u003d\u0026quot;LocalDocBook\u0026quot;/\u0026gt;\n     \u0026lt;/identifiers\u0026gt;  \u0026amp;#10;  used the title from HeD example for display here \"\u003eACC/AHA 2002 guideline update for exercise testing: summary article: A report of the American college of cardiology/American heart association task force on practice guidelines (committee to update the 1997 exercise testing guidelines)\u003c/span\u003e\u003c/p\u003e\u003cp\u003e\u003cb\u003ecitation\u003c/b\u003e: \u003cspan title\u003d\"  there was no description in this specific entry  \"\u003eGibbons RJ, Balady GJ, Bricker JT, Chaitman BR, Fletcher GF, Froelicher VF, et al. ACC/AHA 2002 guideline update for exercise testing: Summary article: A report of the american college of cardiology/american heart association task force on practice guidelines (committee to update the 1997 exercise testing guidelines). Circulation. 2002 October 01;106(14):1883-92.\u003c/span\u003e\u003c/p\u003e\u003c/blockquote\u003e\u003cblockquote\u003e\u003cp\u003e\u003cb\u003erelatedArtifact\u003c/b\u003e\u003c/p\u003e\u003cp\u003e\u003cb\u003etype\u003c/b\u003e: justification\u003c/p\u003e\u003cp\u003e\u003cb\u003edisplay\u003c/b\u003e: \u003cspan title\u003d\"   no identifier field available, this is an example of what is in the source OS\n     \u0026lt;identifiers\u0026gt;\n       \u0026lt;identifier root\u003d\u0026quot;b4064039-2345-4227-b83d-54dc13a838d3\u0026quot;/\u0026gt;\n       \u0026lt;identifier root\u003d\u0026quot;NLM 2017a\u0026quot; identifierName\u003d\u0026quot;LocalDocBook\u0026quot;/\u0026gt;\n      \u0026lt;/identifiers\u0026gt;  \u0026amp;#10;  used the title from HeD example for display here \"\u003eLABEL: ASPIRIN 81 MG- aspirin tablet, coated\u003c/span\u003e\u003c/p\u003e\u003cp\u003e\u003cb\u003ecitation\u003c/b\u003e: \u003cspan title\u003d\"  there was no description in this specific entry  \"\u003eLabel: ASPIRIN 81 MG- aspirin tablet, coated [Internet].: National Library of Medicine; 2017. Available from: https://dailymed.nlm.nih.gov/dailymed/drugInfo.cfm?setid\u003db4064039-2345-4227-b83d-54dc13a838d3.\u003c/span\u003e\u003c/p\u003e\u003c/blockquote\u003e\u003cblockquote\u003e\u003cp\u003e\u003cb\u003erelatedArtifact\u003c/b\u003e\u003c/p\u003e\u003cp\u003e\u003cb\u003etype\u003c/b\u003e: justification\u003c/p\u003e\u003cp\u003e\u003cb\u003edisplay\u003c/b\u003e: \u003cspan title\u003d\"   no identifier field available, this is an example of what is in the source OS\n     \u0026lt;identifiers\u0026gt;\n         \u0026lt;identifier root\u003d\u0026quot;edae8df1-caf9-ff72-1304-5ae8b355f8e7\u0026quot;/\u0026gt;\n         \u0026lt;identifier root\u003d\u0026quot;NLM 2017b\u0026quot; identifierName\u003d\u0026quot;LocalDocBook\u0026quot;/\u0026gt;\n     \u0026lt;/identifiers\u0026gt;  \u0026amp;#10;  used the title from HeD example for display here \"\u003eLABEL: CLOPIDOGREL- clopidogrel bisulfate tablet, film coated\u003c/span\u003e\u003c/p\u003e\u003cp\u003e\u003cb\u003ecitation\u003c/b\u003e: \u003cspan title\u003d\"  there was no description in this specific entry  \"\u003eLABEL: CLOPIDOGREL- clopidogrel bisulfate tablet, film coated [Internet].: National Library of Medicine; 2017. Available from: https://dailymed.nlm.nih.gov/dailymed/drugInfo.cfm?setid\u003dedae8df1-caf9-ff72-1304-5ae8b355f8e7.\u003c/span\u003e\u003c/p\u003e\u003c/blockquote\u003e\u003cblockquote\u003e\u003cp\u003e\u003cb\u003erelatedArtifact\u003c/b\u003e\u003c/p\u003e\u003cp\u003e\u003cb\u003etype\u003c/b\u003e: justification\u003c/p\u003e\u003cp\u003e\u003cb\u003edisplay\u003c/b\u003e: \u003cspan title\u003d\"   no identifier field available, this is an example of what is in the source OS\n     \u0026lt;identifiers\u0026gt;\n        \u0026lt;identifier root\u003d\u0026quot;7fe85155-bc00-406b-b097-e8aece187a8a\u0026quot;/\u0026gt;\n        \u0026lt;identifier root\u003d\u0026quot;NLM 2017c\u0026quot; identifierName\u003d\u0026quot;LocalDocBook\u0026quot;/\u0026gt;\n      \u0026lt;/identifiers\u0026gt;  \u0026amp;#10;  used the title from HeD example for display here \"\u003eLABEL: LIPITOR- atorvastatin calcium tablet, film coated\u003c/span\u003e\u003c/p\u003e\u003cp\u003e\u003cb\u003ecitation\u003c/b\u003e: \u003cspan title\u003d\"  there was no description in this specific entry  \"\u003eLABEL: LIPITOR- atorvastatin calcium tablet, film coated [Internet].: National Library of Medicine; 2017. Available from: https://dailymed.nlm.nih.gov/dailymed/drugInfo.cfm?setid\u003d7fe85155-bc00-406b-b097-e8aece187a8a.\u003c/span\u003e\u003c/p\u003e\u003c/blockquote\u003e\u003cblockquote\u003e\u003cp\u003e\u003cb\u003erelatedArtifact\u003c/b\u003e\u003c/p\u003e\u003cp\u003e\u003cb\u003etype\u003c/b\u003e: justification\u003c/p\u003e\u003cp\u003e\u003cb\u003edisplay\u003c/b\u003e: \u003cspan title\u003d\"   no identifier field available, this is an example of what is in the source OS\n     \u0026lt;identifiers\u0026gt;\n       \u0026lt;identifier root\u003d\u0026quot;2d948600-35d8-4490-983b-918bdce488c8\u0026quot;/\u0026gt;\n       \u0026lt;identifier root\u003d\u0026quot;NLM 2017d\u0026quot; identifierName\u003d\u0026quot;LocalDocBook\u0026quot;/\u0026gt;\n      \u0026lt;/identifiers\u0026gt;  \u0026amp;#10;  used the title from HeD example for display here \"\u003eLABEL: METOPROLOL SUCCINATE EXTENDED-RELEASE - metoprolol succinate tablet, film coated, extended release\u003c/span\u003e\u003c/p\u003e\u003cp\u003e\u003cb\u003ecitation\u003c/b\u003e: \u003cspan title\u003d\"  there was no description in this specific entry  \"\u003eLABEL: LIPITOR- atorvastatin calcium tablet, film coated [Internet].: National Library of Medicine; 2017. Available from: https://dailymed.nlm.nih.gov/dailymed/drugInfo.cfm?setid\u003d7fe85155-bc00-406b-b097-e8aece187a8a.\u003c/span\u003e\u003c/p\u003e\u003c/blockquote\u003e\u003cblockquote\u003e\u003cp\u003e\u003cb\u003erelatedArtifact\u003c/b\u003e\u003c/p\u003e\u003cp\u003e\u003cb\u003etype\u003c/b\u003e: justification\u003c/p\u003e\u003cp\u003e\u003cb\u003edisplay\u003c/b\u003e: \u003cspan title\u003d\"   no identifier field available, this is an example of what is in the source OS\n     \u0026lt;identifiers\u0026gt;\n       \u0026lt;identifier root\u003d\u0026quot;67bf2a15-b115-47ac-ae28-ce2dafd6b5c9\u0026quot;/\u0026gt;\n       \u0026lt;identifier root\u003d\u0026quot;NLM 2017e\u0026quot; identifierName\u003d\u0026quot;LocalDocBook\u0026quot;/\u0026gt;\n     \u0026lt;/identifiers\u0026gt;  \u0026amp;#10;  used the title from HeD example for display here \"\u003eLABEL: NITROGLYCERIN- nitroglycerin tablet\u003c/span\u003e\u003c/p\u003e\u003cp\u003e\u003cb\u003ecitation\u003c/b\u003e: \u003cspan title\u003d\"  there was no description in this specific entry  \"\u003eLABEL: NITROGLYCERIN- nitroglycerin tablet [Internet].: National Library of Medicine; 2017. Available from: https://dailymed.nlm.nih.gov/dailymed/drugInfo.cfm?setid\u003d67bf2a15-b115-47ac-ae28-ce2dafd6b5c9.\u003c/span\u003e\u003c/p\u003e\u003c/blockquote\u003e\u003cblockquote\u003e\u003cp\u003e\u003cb\u003erelatedArtifact\u003c/b\u003e\u003c/p\u003e\u003cp\u003e\u003cb\u003etype\u003c/b\u003e: justification\u003c/p\u003e\u003cp\u003e\u003cb\u003edisplay\u003c/b\u003e: \u003cspan title\u003d\"   no identifier field available, this is an example of what is in the source OS\n      \u0026lt;identifiers\u0026gt;\n        \u0026lt;identifier root\u003d\u0026quot;5c1c694c-4b08-469e-b538-08e69df06146\u0026quot;/\u0026gt;\n        \u0026lt;identifier root\u003d\u0026quot;NLM 2017g\u0026quot; identifierName\u003d\u0026quot;LocalDocBook\u0026quot;/\u0026gt;\n      \u0026lt;/identifiers\u0026gt;  \u0026amp;#10;  used the title from HeD example for display here \"\u003eLABEL: SIMVASTATIN - simvastatin tablet\u003c/span\u003e\u003c/p\u003e\u003cp\u003e\u003cb\u003ecitation\u003c/b\u003e: \u003cspan title\u003d\"  there was no description in this specific entry  \"\u003eLABEL: SIMVASTATIN - simvastatin tablet [Internet].: National Library of Medicine; 2017. Available from: https://dailymed.nlm.nih.gov/dailymed/drugInfo.cfm?setid\u003d5c1c694c-4b08-469e-b538-08e69df06146.\u003c/span\u003e\u003c/p\u003e\u003c/blockquote\u003e\u003cblockquote\u003e\u003cp\u003e\u003cb\u003erelatedArtifact\u003c/b\u003e\u003c/p\u003e\u003cp\u003e\u003cb\u003etype\u003c/b\u003e: justification\u003c/p\u003e\u003cp\u003e\u003cb\u003edisplay\u003c/b\u003e: \u003cspan title\u003d\"   no identifier field available, this is an example of what is in the source OS\n       \u0026lt;identifiers\u0026gt;\n          \u0026lt;identifier root\u003d\u0026quot;10.1136/hrt.2009.190066\u0026quot; identifierName\u003d\u0026quot;DOI\u0026quot;/\u0026gt;\n          \u0026lt;identifier root\u003d\u0026quot;Skinner et al., 2010\u0026quot; identifierName\u003d\u0026quot;LocalDocBook\u0026quot;/\u0026gt;\n        \u0026lt;/identifiers\u0026gt;  \u0026amp;#10;  used the title from HeD example for display here \"\u003eChest Pain Guideline Development Group. NICE guidance. Chest          pain of recent onset: assessment and diagnosis of recent onset chest pain or discomfort of suspected cardiac origin.\u003c/span\u003e\u003c/p\u003e\u003cp\u003e\u003cb\u003ecitation\u003c/b\u003e: \u003cspan title\u003d\"  there was no description in this specific entry  \"\u003eSkinner JS, Smeeth L, Kendall JM, Adams PC, Timmis A, Chest Pain Guideline Development Group. NICE guidance. chest pain of recent onset: Assessment and diagnosis of recent onset chest pain or discomfort of suspected cardiac origin. Heart. 2010 June 01;96(12):974-8.\u003c/span\u003e\u003c/p\u003e\u003c/blockquote\u003e\u003cp\u003e\u003cb\u003elibrary\u003c/b\u003e: \u003ccode\u003e#cardiology-chestPain-logic\u003c/code\u003e\u003c/p\u003e\u003cblockquote\u003e\u003cp\u003e\u003cb\u003eaction\u003c/b\u003e\u003c/p\u003e\u003cblockquote\u003e\u003cp\u003e\u003cb\u003eaction\u003c/b\u003e\u003c/p\u003e\u003cp\u003e\u003cb\u003etitle\u003c/b\u003e: Consults and Referrals\u003c/p\u003e\u003cp\u003e\u003cb\u003egroupingBehavior\u003c/b\u003e: logical-group\u003c/p\u003e\u003cp\u003e\u003cb\u003eselectionBehavior\u003c/b\u003e: any\u003c/p\u003e\u003c/blockquote\u003e\u003cblockquote\u003e\u003cp\u003e\u003cb\u003eaction\u003c/b\u003e\u003c/p\u003e\u003cp\u003e\u003cb\u003etitle\u003c/b\u003e: Medications\u003c/p\u003e\u003cp\u003e\u003cb\u003edescription\u003c/b\u003e: Consider the following medications for stable patients to be initiated prior to the cardiology consultation.\u003c/p\u003e\u003c/blockquote\u003e\u003c/blockquote\u003e\u003c/div\u003e"
  },
  "contained": [
    {
      "resourceType": "Library",
      "id": "cardiology-chestPain-logic",
      "status": "active",
      "type": {
        "coding": [
          {
            "system": "http://terminology.hl7.org/CodeSystem/library-type",
            "code": "logic-library",
            "display": "Logic Library"
          }
        ]
      },
      "description": "Placeholder library"
    },
    {
      "resourceType": "ActivityDefinition",
      "id": "referralToCardiologyConsult",
      "status": "draft",
      "description": "Consider other consult modalities which might be available (e.g., e-consult or other rapidly iterative consult method. A simple consult is included here as the overarching clinical intent.",
      "kind": "ServiceRequest",
      "timingTiming": {
        "_event": [
          {
            "extension": [
              {
                "url": "http://hl7.org/fhir/StructureDefinition/cqf-expression",
                "valueExpression": {
                  "language": "text/cql",
                  "expression": "Now()"
                }
              }
            ]
          }
        ]
      },
      "participant": [
        {
          "type": "practitioner"
        }
      ]
    },
    {
      "resourceType": "ActivityDefinition",
      "id": "metoprololTartrate25Prescription",
      "status": "draft",
      "kind": "MedicationRequest",
      "productReference": {
        "reference": "#metoprololTartrate25Medication"
      },
      "dosage": [
        {
          "text": "1 tablet oral 2 time daily",
          "timing": {
            "repeat": {
              "frequency": 2,
              "period": 1,
              "periodUnit": "d"
            }
          },
          "route": {
            "coding": [
              {
                "code": "26643006",
                "display": "Oral route (qualifier value)"
              }
            ],
            "text": "Oral route (qualifier value)"
          },
          "doseAndRate": [
            {
              "type": {
                "coding": [
                  {
                    "system": "http://terminology.hl7.org/CodeSystem/dose-rate-type",
                    "code": "ordered",
                    "display": "Ordered"
                  }
                ]
              },
              "doseQuantity": {
                "value": 1,
                "unit": "{tbl}"
              }
            }
          ]
        }
      ],
      "dynamicValue": [
        {
          "path": "medicationRequest.priority",
          "expression": {
            "language": "text/cql",
            "expression": "routine"
          }
        }
      ]
    },
    {
      "resourceType": "Medication",
      "id": "metoprololTartrate25Medication",
      "code": {
        "coding": [
          {
            "system": "http://www.nlm.nih.gov/research/umls/rxnorm",
            "code": "866426"
          }
        ],
        "text": "Metoprolol Tartrate 25 MG"
      },
      "doseForm": {
        "coding": [
          {
            "system": "http://snomed.info/sct",
            "code": "385055001",
            "display": "Tablet dose form"
          }
        ],
        "text": "Tablet dose form"
      },
      "ingredient": [
        {
          "item": {
            "reference": {
              "reference": "#metoprololTartrate25Substance"
            }
          },
          "strengthRatio": {
            "numerator": {
              "value": 25,
              "unit": "mg"
            },
            "denominator": {
              "value": 1,
              "unit": "{tbl}"
            }
          }
        }
      ]
    },
    {
      "resourceType": "Substance",
      "id": "metoprololTartrate25Substance",
      "instance": false,
      "code": {
        "concept": {
          "coding": [
            {
              "system": "http://www.nlm.nih.gov/research/umls/rxnorm",
              "code": "6918"
            }
          ],
          "text": "Metoprolol"
        }
      }
    },
    {
      "resourceType": "ActivityDefinition",
      "id": "metoprololTartrate50Prescription",
      "status": "draft",
      "kind": "MedicationRequest",
      "productReference": {
        "reference": "#metoprololTartrate50Medication"
      },
      "dosage": [
        {
          "text": "1 tablet oral 2 time daily",
          "timing": {
            "repeat": {
              "frequency": 2,
              "period": 1,
              "periodUnit": "d"
            }
          },
          "route": {
            "coding": [
              {
                "code": "26643006",
                "display": "Oral route (qualifier value)"
              }
            ],
            "text": "Oral route (qualifier value)"
          },
          "doseAndRate": [
            {
              "type": {
                "coding": [
                  {
                    "system": "http://terminology.hl7.org/CodeSystem/dose-rate-type",
                    "code": "ordered",
                    "display": "Ordered"
                  }
                ]
              },
              "doseQuantity": {
                "value": 1,
                "unit": "{tbl}"
              }
            }
          ]
        }
      ],
      "dynamicValue": [
        {
          "path": "medicationRequest.priority",
          "expression": {
            "language": "text/cql",
            "expression": "routine"
          }
        }
      ]
    },
    {
      "resourceType": "Medication",
      "id": "metoprololTartrate50Medication",
      "code": {
        "coding": [
          {
            "system": "http://www.nlm.nih.gov/research/umls/rxnorm",
            "code": "866435"
          }
        ],
        "text": "Metoprolol Tartrate 50 MG"
      },
      "doseForm": {
        "coding": [
          {
            "system": "http://snomed.info/sct",
            "code": "385055001",
            "display": "Tablet dose form"
          }
        ],
        "text": "Tablet dose form"
      },
      "ingredient": [
        {
          "item": {
            "reference": {
              "reference": "#metoprololTartrate50Substance"
            }
          },
          "strengthRatio": {
            "numerator": {
              "value": 50,
              "unit": "mg"
            },
            "denominator": {
              "value": 1,
              "unit": "{tbl}"
            }
          }
        }
      ]
    },
    {
      "resourceType": "Substance",
      "id": "metoprololTartrate50Substance",
      "instance": false,
      "code": {
        "concept": {
          "coding": [
            {
              "system": "http://www.nlm.nih.gov/research/umls/rxnorm",
              "code": "6918"
            }
          ],
          "text": "Metoprolol"
        }
      }
    },
    {
      "resourceType": "ActivityDefinition",
      "id": "nitroglycerinPrescription",
      "status": "draft",
      "kind": "MedicationRequest",
      "productReference": {
        "reference": "#nitroglycerinMedication"
      },
      "dosage": [
        {
          "text": "nitroglycerin 0.4 mg tablet sub-lingual every 5 minutes as needed for chest pain; maximum 3 tablets",
          "timing": {
            "repeat": {
              "frequency": 1,
              "period": 5,
              "periodUnit": "min"
            }
          },
          "doseAndRate": [
            {
              "type": {
                "coding": [
                  {
                    "system": "http://terminology.hl7.org/CodeSystem/dose-rate-type",
                    "code": "ordered",
                    "display": "Ordered"
                  }
                ]
              },
              "doseQuantity": {
                "value": 1,
                "unit": "{tbl}"
              }
            }
          ],
          "maxDosePerAdministration": {
            "value": 3,
            "unit": "{tbl}"
          }
        }
      ],
      "dynamicValue": [
        {
          "path": "medicationRequest.priority",
          "expression": {
            "language": "text/cql",
            "expression": "routine"
          }
        }
      ]
    },
    {
      "resourceType": "Medication",
      "id": "nitroglycerinMedication",
      "code": {
        "coding": [
          {
            "system": "http://www.nlm.nih.gov/research/umls/rxnorm",
            "code": "316365"
          }
        ],
        "text": "Nitroglycerin 0.4 MG"
      },
      "doseForm": {
        "coding": [
          {
            "system": "http://snomed.info/sct",
            "code": "385055001",
            "display": "Tablet dose form"
          }
        ],
        "text": "Tablet dose form"
      },
      "ingredient": [
        {
          "item": {
            "reference": {
              "reference": "#nitroglycerinSubstance"
            }
          },
          "strengthRatio": {
            "numerator": {
              "value": 0.4,
              "unit": "mg"
            },
            "denominator": {
              "value": 1,
              "unit": "{tbl}"
            }
          }
        }
      ]
    },
    {
      "resourceType": "Substance",
      "id": "nitroglycerinSubstance",
      "instance": false,
      "code": {
        "concept": {
          "coding": [
            {
              "system": "http://www.nlm.nih.gov/research/umls/rxnorm",
              "code": "4917"
            }
          ],
          "text": "Nitroglycerin"
        }
      }
    },
    {
      "resourceType": "Questionnaire",
      "id": "CollectReferralReason",
      "status": "draft",
      "item": [
        {
          "linkId": "1",
          "text": "Reason for Cardiology Consult",
          "type": "coding",
          "required": true,
          "repeats": true,
          "answerValueSet": "#CardiologyReferralReasonValues"
        }
      ]
    },
    {
      "resourceType": "Questionnaire",
      "id": "CardiologyConsultationGoal",
      "status": "draft",
      "item": [
        {
          "linkId": "2",
          "text": "Goal of cardiology consultation",
          "type": "string"
        }
      ]
    }
  ],
  "url": "http://va.gov/kas/orderset/B5-Cardiology-ChestPainCAD-OS",
  "identifier": [
    {
      "system": "urn:ietf:rfc:3986",
      "value": "urn:oid:2.16.840.1.113883.4.642.11.8"
    },
    {
      "use": "official",
      "system": "urn:va.gov:kbs:knart:artifact:r1",
      "value": "bb7ccea6-9744-4743-854a-bcffd87191f6"
    },
    {
      "system": "urn:va.gov:kbs:contract:VA118-16-D-1008:to:VA-118-16-F-1008-0007",
      "value": "CLIN0004AG"
    },
    {
      "system": "urn:cognitivemedicine.com:lab:jira",
      "value": "KP-914"
    }
  ],
  "version": "0.1",
  "name": "ChestPainCoronaryArteryDiseaseOrderSetKNART",
  "title": "Chest Pain (CP) - Coronary Artery Disease (CAD) Order Set KNART",
  "type": {
    "coding": [
      {
        "system": "http://terminology.hl7.org/CodeSystem/plan-definition-type",
        "code": "order-set",
        "display": "Order Set"
      }
    ]
  },
  "status": "active",
  "date": "2017-08-29",
  "publisher": "Department of Veterans Affairs",
  "description": "The Cardiology chest pain (CP) and coronary artery disease (CAD) group of KNARTs are     intended to assist primary care providers in the management of adult patients with stable     chest pain (with or without known CAD); aid in determining when a cardiology consultation is     appropriate; provide guidance for initial noninvasive diagnostic orders (stress testing) and     provide a structured documentation template for the process. Stable patients with cardiac     chest pain require risk stratification, office-based workup, initiation of disease-specific     medications, and subspecialty referral to a cardiologist.",
  "useContext": [
    {
      "code": {
        "system": "http://terminology.hl7.org/CodeSystem/usage-context-type",
        "code": "focus"
      },
      "valueCodeableConcept": {
        "coding": [
          {
            "system": "http://snomed.info/sct",
            "code": "look up value",
            "display": "appropriate snomed condition"
          }
        ]
      }
    }
  ],
  "usage": "The Cardiology chest pain (CP) and coronary artery disease (CAD) group of KNARTs are intended to assist primary care providers in the management of adult patients with stable chest pain (with or without known CAD); aid in determining when a cardiology consultation is appropriate; provide guidance for initial noninvasive diagnostic orders (stress testing) and provide a structured documentation template for the process. Stable patients with cardiac chest pain require risk stratification, office-based workup, initiation of disease-specific medications, and subspecialty referral to a cardiologist. This context excludes emergent patients (new/ongoing/unstable pattern CP). Included are those patients with stable CP with or without known CAD, to be considered for evaluation by cardiology.",
  "copyright": "© Copyright Cognitive Medical Systems, Inc. 9444 Waples Street Suite 300 San Diego, CA 92121",
  "author": [
    {
      "name": "Bruce Bray MD"
    },
    {
      "name": "Scott Wall MD"
    },
    {
      "name": "Aiden Abidov MD, PhD"
    }
  ],
  "relatedArtifact": [
    {
      "type": "derived-from",
      "display": "Cardiology: Chest Pain (CP) / Coronary Artery Disease (CAD) Clinical Content White Paper",
      "document": {
        "url": "NEED-A-URL-HERE"
      }
    },
    {
      "type": "justification",
      "display": "Outcome CVD (coronary death, myocardial infarction, coronary insufficiency, angina, ischemic stroke, hemorrhagic stroke, transient ischemic attack, peripheral artery disease, heart failure)",
      "citation": "Cardiovascular disease          (10-year risk) [Internet].: Framingham Heart Study; cited 2017]. Available from: https://www.framinghamheartstudy.org/risk-functions/cardiovascular-disease/10-year-risk.php.",
      "document": {
        "url": "https://www.framinghamheartstudy.org/risk-functions/cardiovascular-disease/10-year-risk.php"
      }
    },
    {
      "type": "justification",
      "display": "General cardiovascular risk profile for use in primary care: the Framingham Heart Study",
      "citation": "Cardiovascular disease          (10-year risk) [Internet].: Framingham Heart Study; cited 2017]. Available from: https://www.framinghamheartstudy.org/risk-functions/cardiovascular-disease/10-year-risk.php.",
      "document": {
        "url": "https://www.framinghamheartstudy.org/risk-functions/cardiovascular-disease/10-year-risk.php"
      }
    },
    {
      "type": "justification",
      "display": "2014 ACC/AHA/AATS/PCNA/SCAI/STS focused update of the guideline for the diagnosis and management of patients with stable ischemic heart disease: a report of the American College of Cardiology/American Heart Association Task Force on Practice Guidelines, and the American Association for Thoracic Surgery, Preventive Cardiovascular Nurses Association, Society for Cardiovascular Angiography and Interventions, and Society of Thoracic Surgeons",
      "citation": "Fihn SD, Blankenship JC, Alexander KP, Bittl JA, Byrne JG, Fletcher BJ, et al. 2014 ACC/AHA/AATS/PCNA/SCAI/STS focused update of the guideline for the diagnosis and management of patients with stable ischemic heart disease: A report of the american college of cardiology/american heart association task force on practice guidelines, and the american association for thoracic surgery, preventive cardiovascular nurses association, society for cardiovascular angiography and interventions, and society of thoracic surgeons. J Thorac Cardiovasc Surg. 2015 March 01;149(3):5.",
      "document": {
        "url": "NEED-A-URL-HERE"
      }
    },
    {
      "type": "justification",
      "display": "ACC/AHA 2002 guideline update for exercise testing: summary article: A report of the American college of cardiology/American heart association task force on practice guidelines (committee to update the 1997 exercise testing guidelines)",
      "citation": "Gibbons RJ, Balady GJ, Bricker JT, Chaitman BR, Fletcher GF, Froelicher VF, et al. ACC/AHA 2002 guideline update for exercise testing: Summary article: A report of the american college of cardiology/american heart association task force on practice guidelines (committee to update the 1997 exercise testing guidelines). Circulation. 2002 October 01;106(14):1883-92.",
      "document": {
        "url": "NEED-A-URL-HERE"
      }
    },
    {
      "type": "justification",
      "display": "LABEL: ASPIRIN 81 MG- aspirin tablet, coated",
      "citation": "Label: ASPIRIN 81 MG- aspirin tablet, coated [Internet].: National Library of Medicine; 2017. Available from: https://dailymed.nlm.nih.gov/dailymed/drugInfo.cfm?setid\u003db4064039-2345-4227-b83d-54dc13a838d3.",
      "document": {
        "url": "https://dailymed.nlm.nih.gov/dailymed/drugInfo.cfm?setid\u003db4064039-2345-4227-b83d-54dc13a838d3"
      }
    },
    {
      "type": "justification",
      "display": "LABEL: CLOPIDOGREL- clopidogrel bisulfate tablet, film coated",
      "citation": "LABEL: CLOPIDOGREL- clopidogrel bisulfate tablet, film coated [Internet].: National Library of Medicine; 2017. Available from: https://dailymed.nlm.nih.gov/dailymed/drugInfo.cfm?setid\u003dedae8df1-caf9-ff72-1304-5ae8b355f8e7.",
      "document": {
        "url": "https://dailymed.nlm.nih.gov/dailymed/drugInfo.cfm?setid\u003d7fe85155-bc00-406b-b097-e8aece187a8a"
      }
    },
    {
      "type": "justification",
      "display": "LABEL: LIPITOR- atorvastatin calcium tablet, film coated",
      "citation": "LABEL: LIPITOR- atorvastatin calcium tablet, film coated [Internet].: National Library of Medicine; 2017. Available from: https://dailymed.nlm.nih.gov/dailymed/drugInfo.cfm?setid\u003d7fe85155-bc00-406b-b097-e8aece187a8a.",
      "document": {
        "url": "https://dailymed.nlm.nih.gov/dailymed/drugInfo.cfm?setid\u003d7fe85155-bc00-406b-b097-e8aece187a8a"
      }
    },
    {
      "type": "justification",
      "display": "LABEL: METOPROLOL SUCCINATE EXTENDED-RELEASE - metoprolol succinate tablet, film coated, extended release",
      "citation": "LABEL: LIPITOR- atorvastatin calcium tablet, film coated [Internet].: National Library of Medicine; 2017. Available from: https://dailymed.nlm.nih.gov/dailymed/drugInfo.cfm?setid\u003d7fe85155-bc00-406b-b097-e8aece187a8a.",
      "document": {
        "url": "https://dailymed.nlm.nih.gov/dailymed/drugInfo.cfm?setid\u003d2d948600-35d8-4490-983b-918bdce488c8"
      }
    },
    {
      "type": "justification",
      "display": "LABEL: NITROGLYCERIN- nitroglycerin tablet",
      "citation": "LABEL: NITROGLYCERIN- nitroglycerin tablet [Internet].: National Library of Medicine; 2017. Available from: https://dailymed.nlm.nih.gov/dailymed/drugInfo.cfm?setid\u003d67bf2a15-b115-47ac-ae28-ce2dafd6b5c9.",
      "document": {
        "url": "https://dailymed.nlm.nih.gov/dailymed/drugInfo.cfm?setid\u003d67bf2a15-b115-47ac-ae28-ce2dafd6b5c9"
      }
    },
    {
      "type": "justification",
      "display": "LABEL: SIMVASTATIN - simvastatin tablet",
      "citation": "LABEL: SIMVASTATIN - simvastatin tablet [Internet].: National Library of Medicine; 2017. Available from: https://dailymed.nlm.nih.gov/dailymed/drugInfo.cfm?setid\u003d5c1c694c-4b08-469e-b538-08e69df06146.",
      "document": {
        "url": "https://dailymed.nlm.nih.gov/dailymed/drugInfo.cfm?setid\u003d5c1c694c-4b08-469e-b538-08e69df06146"
      }
    },
    {
      "type": "justification",
      "display": "Chest Pain Guideline Development Group. NICE guidance. Chest          pain of recent onset: assessment and diagnosis of recent onset chest pain or discomfort of suspected cardiac origin.",
      "citation": "Skinner JS, Smeeth L, Kendall JM, Adams PC, Timmis A, Chest Pain Guideline Development Group. NICE guidance. chest pain of recent onset: Assessment and diagnosis of recent onset chest pain or discomfort of suspected cardiac origin. Heart. 2010 June 01;96(12):974-8.",
      "document": {
        "url": "http://heart.bmj.com/content/96/12/974.long"
      }
    }
  ],
  "library": [
    "#cardiology-chestPain-logic"
  ],
  "action": [
    {
      "action": [
        {
          "title": "Consults and Referrals",
          "groupingBehavior": "logical-group",
          "selectionBehavior": "any",
          "action": [
            {
              "textEquivalent": "Referral to cardiology to evaluate chest pain (routine)",
              "definitionCanonical": "#referralToCardiologyConsult",
              "dynamicValue": [
                {
                  "path": "timing.event",
                  "expression": {
                    "language": "text/cql",
                    "expression": "Now()"
                  }
                },
                {
                  "path": "specialty",
                  "expression": {
                    "language": "text/cql",
                    "expression": "Code \u0027261QM0850X\u0027 from CardiologyChestPainLogic.\"NUCC Provider Taxonomy\" display \u0027Adult Mental Health\u0027"
                  }
                },
                {
                  "path": "occurrenceDateTime",
                  "expression": {
                    "language": "text/cql",
                    "expression": "CardiologyChestPainLogic.ServiceRequestFulfillmentTime"
                  }
                },
                {
                  "path": "subject",
                  "expression": {
                    "language": "text/cql",
                    "expression": "CardiologyChestPainLogic.Patient"
                  }
                },
                {
                  "path": "requester.agent",
                  "expression": {
                    "language": "text/cql",
                    "expression": "CardiologyChestPainLogic.Practitioner"
                  }
                },
                {
                  "path": "reasonCode",
                  "expression": {
                    "language": "text/cql",
                    "expression": "CardiologyChestPainLogic.CardiologyReferralReason"
                  }
                },
                {
                  "path": "reasonReference",
                  "expression": {
                    "language": "text/cql",
                    "expression": "CardiologyChestPainLogic.RiskAssessment"
                  }
                }
              ]
            },
            {
              "title": "Reason for cardiology consultation",
              "definitionCanonical": "#CollectReferralReason"
            },
            {
              "title": "Goal of cardiology consultation",
              "definitionCanonical": "#CardiologyConsultationGoal"
            }
          ]
        },
        {
          "title": "Medications",
          "description": "Consider the following medications for stable patients to be initiated prior to the cardiology consultation.",
          "action": [
            {
              "groupingBehavior": "logical-group",
              "selectionBehavior": "at-most-one"
            },
            {
              "title": "Antianginal Therapy",
              "groupingBehavior": "logical-group",
              "selectionBehavior": "at-most-one",
              "action": [
                {
                  "textEquivalent": "metoprolol tartrate 25 mg tablet 1 tablet oral 2 time daily",
                  "definitionCanonical": "#metoprololTartrate25Prescription",
                  "dynamicValue": [
                    {
                      "path": "status",
                      "expression": {
                        "language": "text/cql",
                        "expression": "\u0027draft\u0027"
                      }
                    },
                    {
                      "path": "patient",
                      "expression": {
                        "language": "text/cql",
                        "expression": "CardiologyChestPainLogic.Patient"
                      }
                    },
                    {
                      "path": "prescriber",
                      "expression": {
                        "language": "text/cql",
                        "expression": "CardiologyChestPainLogic.Practitioner"
                      }
                    }
                  ]
                },
                {
                  "textEquivalent": "metoprolol tartrate 50 mg tablet 1 tablet oral 2 time daily",
                  "definitionCanonical": "#metoprololTartrate50Prescription",
                  "dynamicValue": [
                    {
                      "path": "status",
                      "expression": {
                        "language": "text/cql",
                        "expression": "\u0027draft\u0027"
                      }
                    },
                    {
                      "path": "patient",
                      "expression": {
                        "language": "text/cql",
                        "expression": "CardiologyChestPainLogic.Patient"
                      }
                    },
                    {
                      "path": "prescriber",
                      "expression": {
                        "language": "text/cql",
                        "expression": "CardiologyChestPainLogic.Practitioner"
                      }
                    }
                  ]
                },
                {
                  "textEquivalent": "amlodipine 5  tablet 1 tablet oral  daily",
                  "definitionCanonical": "#amlodipinePrescription",
                  "dynamicValue": [
                    {
                      "path": "status",
                      "expression": {
                        "language": "text/cql",
                        "expression": "\u0027draft\u0027"
                      }
                    },
                    {
                      "path": "patient",
                      "expression": {
                        "language": "text/cql",
                        "expression": "CardiologyChestPainLogic.Patient"
                      }
                    },
                    {
                      "path": "prescriber",
                      "expression": {
                        "language": "text/cql",
                        "expression": "CardiologyChestPainLogic.Practitioner"
                      }
                    }
                  ]
                }
              ]
            },
            {
              "title": "Nitroglycerin",
              "groupingBehavior": "logical-group",
              "selectionBehavior": "at-most-one",
              "action": [
                {
                  "textEquivalent": "nitroglycerin 0.4 mg tablet sub-lingual every 5 minutes as needed for chest pain; maximum 3 tablets",
                  "definitionCanonical": "#nitroglycerinPrescription",
                  "dynamicValue": [
                    {
                      "path": "status",
                      "expression": {
                        "language": "text/cql",
                        "expression": "\u0027draft\u0027"
                      }
                    },
                    {
                      "path": "patient",
                      "expression": {
                        "language": "text/cql",
                        "expression": "CardiologyChestPainLogic.Patient"
                      }
                    },
                    {
                      "path": "prescriber",
                      "expression": {
                        "language": "text/cql",
                        "expression": "CardiologyChestPainLogic.Practitioner"
                      }
                    }
                  ]
                }
              ]
            }
          ]
        }
      ]
    }
  ]
}