{"resourceType":"MolecularSequence","id":"coord-0-base","text":{"status":"generated","div":"\u003cdiv xmlns\u003d\"http://www.w3.org/1999/xhtml\"\u003e\u003cp\u003e\u003cb\u003eGenerated Narrative with Details\u003c/b\u003e\u003c/p\u003e\u003cp\u003e\u003cb\u003eid\u003c/b\u003e: coord-0-base\u003c/p\u003e\u003cp\u003e\u003cb\u003etype\u003c/b\u003e: dna\u003c/p\u003e\u003cp\u003e\u003cb\u003ecoordinateSystem\u003c/b\u003e: 0\u003c/p\u003e\u003ch3\u003eReferenceSeqs\u003c/h3\u003e\u003ctable\u003e\u003ctr\u003e\u003ctd\u003e-\u003c/td\u003e\u003ctd\u003e\u003cb\u003eReferenceSeqString\u003c/b\u003e\u003c/td\u003e\u003ctd\u003e\u003cb\u003eStrand\u003c/b\u003e\u003c/td\u003e\u003ctd\u003e\u003cb\u003eWindowStart\u003c/b\u003e\u003c/td\u003e\u003ctd\u003e\u003cb\u003eWindowEnd\u003c/b\u003e\u003c/td\u003e\u003c/tr\u003e\u003ctr\u003e\u003ctd\u003e*\u003c/td\u003e\u003ctd\u003eACGTAGTC\u003c/td\u003e\u003ctd\u003ewatson\u003c/td\u003e\u003ctd\u003e0\u003c/td\u003e\u003ctd\u003e8\u003c/td\u003e\u003c/tr\u003e\u003c/table\u003e\u003cblockquote\u003e\u003cp\u003e\u003cb\u003evariant\u003c/b\u003e\u003c/p\u003e\u003cp\u003e\u003cb\u003estart\u003c/b\u003e: 2\u003c/p\u003e\u003cp\u003e\u003cb\u003eend\u003c/b\u003e: 2\u003c/p\u003e\u003cp\u003e\u003cb\u003eobservedAllele\u003c/b\u003e: ATG\u003c/p\u003e\u003cp\u003e\u003cb\u003ereferenceAllele\u003c/b\u003e: -\u003c/p\u003e\u003cp\u003e\u003cb\u003ecigar\u003c/b\u003e: 3I\u003c/p\u003e\u003c/blockquote\u003e\u003cblockquote\u003e\u003cp\u003e\u003cb\u003evariant\u003c/b\u003e\u003c/p\u003e\u003cp\u003e\u003cb\u003estart\u003c/b\u003e: 4\u003c/p\u003e\u003cp\u003e\u003cb\u003eend\u003c/b\u003e: 5\u003c/p\u003e\u003cp\u003e\u003cb\u003eobservedAllele\u003c/b\u003e: T\u003c/p\u003e\u003cp\u003e\u003cb\u003ereferenceAllele\u003c/b\u003e: A\u003c/p\u003e\u003cp\u003e\u003cb\u003ecigar\u003c/b\u003e: 1M\u003c/p\u003e\u003c/blockquote\u003e\u003cblockquote\u003e\u003cp\u003e\u003cb\u003evariant\u003c/b\u003e\u003c/p\u003e\u003cp\u003e\u003cb\u003estart\u003c/b\u003e: 6\u003c/p\u003e\u003cp\u003e\u003cb\u003eend\u003c/b\u003e: 7\u003c/p\u003e\u003cp\u003e\u003cb\u003eobservedAllele\u003c/b\u003e: -\u003c/p\u003e\u003cp\u003e\u003cb\u003ereferenceAllele\u003c/b\u003e: T\u003c/p\u003e\u003cp\u003e\u003cb\u003ecigar\u003c/b\u003e: 1D\u003c/p\u003e\u003c/blockquote\u003e\u003cp\u003e\u003cb\u003eobservedSeq\u003c/b\u003e: ACATGGTAGC\u003c/p\u003e\u003c/div\u003e"},"type":"dna","coordinateSystem":0,"referenceSeq":{"referenceSeqString":"ACGTAGTC","strand":"watson","windowStart":0,"windowEnd":8},"variant":[{"start":2,"end":2,"observedAllele":"ATG","referenceAllele":"-","cigar":"3I"},{"start":4,"end":5,"observedAllele":"T","referenceAllele":"A","cigar":"1M"},{"start":6,"end":7,"observedAllele":"-","referenceAllele":"T","cigar":"1D"}],"observedSeq":"ACATGGTAGC"}
{"resourceType":"MolecularSequence","id":"coord-1-base","text":{"status":"generated","div":"\u003cdiv xmlns\u003d\"http://www.w3.org/1999/xhtml\"\u003e\u003cp\u003e\u003cb\u003eGenerated Narrative with Details\u003c/b\u003e\u003c/p\u003e\u003cp\u003e\u003cb\u003eid\u003c/b\u003e: coord-1-base\u003c/p\u003e\u003cp\u003e\u003cb\u003etype\u003c/b\u003e: dna\u003c/p\u003e\u003cp\u003e\u003cb\u003ecoordinateSystem\u003c/b\u003e: 1\u003c/p\u003e\u003ch3\u003eReferenceSeqs\u003c/h3\u003e\u003ctable\u003e\u003ctr\u003e\u003ctd\u003e-\u003c/td\u003e\u003ctd\u003e\u003cb\u003eReferenceSeqString\u003c/b\u003e\u003c/td\u003e\u003ctd\u003e\u003cb\u003eStrand\u003c/b\u003e\u003c/td\u003e\u003ctd\u003e\u003cb\u003eWindowStart\u003c/b\u003e\u003c/td\u003e\u003ctd\u003e\u003cb\u003eWindowEnd\u003c/b\u003e\u003c/td\u003e\u003c/tr\u003e\u003ctr\u003e\u003ctd\u003e*\u003c/td\u003e\u003ctd\u003eACGTAGTC\u003c/td\u003e\u003ctd\u003ewatson\u003c/td\u003e\u003ctd\u003e1\u003c/td\u003e\u003ctd\u003e8\u003c/td\u003e\u003c/tr\u003e\u003c/table\u003e\u003cblockquote\u003e\u003cp\u003e\u003cb\u003evariant\u003c/b\u003e\u003c/p\u003e\u003cp\u003e\u003cb\u003estart\u003c/b\u003e: 2\u003c/p\u003e\u003cp\u003e\u003cb\u003eend\u003c/b\u003e: 3\u003c/p\u003e\u003cp\u003e\u003cb\u003eobservedAllele\u003c/b\u003e: ATG\u003c/p\u003e\u003cp\u003e\u003cb\u003ereferenceAllele\u003c/b\u003e: -\u003c/p\u003e\u003cp\u003e\u003cb\u003ecigar\u003c/b\u003e: 3I\u003c/p\u003e\u003c/blockquote\u003e\u003cblockquote\u003e\u003cp\u003e\u003cb\u003evariant\u003c/b\u003e\u003c/p\u003e\u003cp\u003e\u003cb\u003estart\u003c/b\u003e: 5\u003c/p\u003e\u003cp\u003e\u003cb\u003eend\u003c/b\u003e: 5\u003c/p\u003e\u003cp\u003e\u003cb\u003eobservedAllele\u003c/b\u003e: T\u003c/p\u003e\u003cp\u003e\u003cb\u003ereferenceAllele\u003c/b\u003e: A\u003c/p\u003e\u003cp\u003e\u003cb\u003ecigar\u003c/b\u003e: 3I\u003c/p\u003e\u003c/blockquote\u003e\u003cblockquote\u003e\u003cp\u003e\u003cb\u003evariant\u003c/b\u003e\u003c/p\u003e\u003cp\u003e\u003cb\u003estart\u003c/b\u003e: 7\u003c/p\u003e\u003cp\u003e\u003cb\u003eend\u003c/b\u003e: 7\u003c/p\u003e\u003cp\u003e\u003cb\u003eobservedAllele\u003c/b\u003e: -\u003c/p\u003e\u003cp\u003e\u003cb\u003ereferenceAllele\u003c/b\u003e: T\u003c/p\u003e\u003cp\u003e\u003cb\u003ecigar\u003c/b\u003e: 1D\u003c/p\u003e\u003c/blockquote\u003e\u003cp\u003e\u003cb\u003eobservedSeq\u003c/b\u003e: ACATGGTAGC\u003c/p\u003e\u003c/div\u003e"},"type":"dna","coordinateSystem":1,"referenceSeq":{"referenceSeqString":"ACGTAGTC","strand":"watson","windowStart":1,"windowEnd":8},"variant":[{"start":2,"end":3,"observedAllele":"ATG","referenceAllele":"-","cigar":"3I"},{"start":5,"end":5,"observedAllele":"T","referenceAllele":"A","cigar":"3I"},{"start":7,"end":7,"observedAllele":"-","referenceAllele":"T","cigar":"1D"}],"observedSeq":"ACATGGTAGC"}
{"resourceType":"MolecularSequence","id":"example","text":{"status":"generated","div":"\u003cdiv xmlns\u003d\"http://www.w3.org/1999/xhtml\"\u003e\u003cp\u003e\u003cb\u003eGenerated Narrative with Details\u003c/b\u003e\u003c/p\u003e\u003cp\u003e\u003cb\u003eid\u003c/b\u003e: example\u003c/p\u003e\u003cp\u003e\u003cb\u003etype\u003c/b\u003e: dna\u003c/p\u003e\u003cp\u003e\u003cb\u003ecoordinateSystem\u003c/b\u003e: 0\u003c/p\u003e\u003cp\u003e\u003cb\u003epatient\u003c/b\u003e: \u003ca\u003ePatient/example\u003c/a\u003e\u003c/p\u003e\u003ch3\u003eReferenceSeqs\u003c/h3\u003e\u003ctable\u003e\u003ctr\u003e\u003ctd\u003e-\u003c/td\u003e\u003ctd\u003e\u003cb\u003eReferenceSeqId\u003c/b\u003e\u003c/td\u003e\u003ctd\u003e\u003cb\u003eStrand\u003c/b\u003e\u003c/td\u003e\u003ctd\u003e\u003cb\u003eWindowStart\u003c/b\u003e\u003c/td\u003e\u003ctd\u003e\u003cb\u003eWindowEnd\u003c/b\u003e\u003c/td\u003e\u003c/tr\u003e\u003ctr\u003e\u003ctd\u003e*\u003c/td\u003e\u003ctd\u003eNC_000009.11 \u003cspan\u003e(Details : {http://www.ncbi.nlm.nih.gov/nuccore code \u0027NC_000009.11\u0027 \u003d \u0027NC_000009.11)\u003c/span\u003e\u003c/td\u003e\u003ctd\u003ewatson\u003c/td\u003e\u003ctd\u003e22125500\u003c/td\u003e\u003ctd\u003e22125510\u003c/td\u003e\u003c/tr\u003e\u003c/table\u003e\u003ch3\u003eVariants\u003c/h3\u003e\u003ctable\u003e\u003ctr\u003e\u003ctd\u003e-\u003c/td\u003e\u003ctd\u003e\u003cb\u003eStart\u003c/b\u003e\u003c/td\u003e\u003ctd\u003e\u003cb\u003eEnd\u003c/b\u003e\u003c/td\u003e\u003ctd\u003e\u003cb\u003eObservedAllele\u003c/b\u003e\u003c/td\u003e\u003ctd\u003e\u003cb\u003eReferenceAllele\u003c/b\u003e\u003c/td\u003e\u003c/tr\u003e\u003ctr\u003e\u003ctd\u003e*\u003c/td\u003e\u003ctd\u003e22125503\u003c/td\u003e\u003ctd\u003e22125504\u003c/td\u003e\u003ctd\u003eC\u003c/td\u003e\u003ctd\u003eG\u003c/td\u003e\u003c/tr\u003e\u003c/table\u003e\u003ch3\u003eRepositories\u003c/h3\u003e\u003ctable\u003e\u003ctr\u003e\u003ctd\u003e-\u003c/td\u003e\u003ctd\u003e\u003cb\u003eType\u003c/b\u003e\u003c/td\u003e\u003ctd\u003e\u003cb\u003eUrl\u003c/b\u003e\u003c/td\u003e\u003ctd\u003e\u003cb\u003eName\u003c/b\u003e\u003c/td\u003e\u003ctd\u003e\u003cb\u003eVariantsetId\u003c/b\u003e\u003c/td\u003e\u003c/tr\u003e\u003ctr\u003e\u003ctd\u003e*\u003c/td\u003e\u003ctd\u003eopenapi\u003c/td\u003e\u003ctd\u003e\u003ca\u003ehttp://grch37.rest.ensembl.org/ga4gh/variants/3:rs1333049?content-type\u003dapplication/json\u003c/a\u003e\u003c/td\u003e\u003ctd\u003eGA4GH API\u003c/td\u003e\u003ctd\u003e3:rs1333049\u003c/td\u003e\u003c/tr\u003e\u003c/table\u003e\u003c/div\u003e"},"type":"dna","coordinateSystem":0,"patient":{"reference":"Patient/example"},"referenceSeq":{"referenceSeqId":{"coding":[{"system":"http://www.ncbi.nlm.nih.gov/nuccore","code":"NC_000009.11"}]},"strand":"watson","windowStart":22125500,"windowEnd":22125510},"variant":[{"start":22125503,"end":22125504,"observedAllele":"C","referenceAllele":"G"}],"repository":[{"type":"openapi","url":"http://grch37.rest.ensembl.org/ga4gh/variants/3:rs1333049?content-type\u003dapplication/json","name":"GA4GH API","variantsetId":"3:rs1333049"}]}
{"resourceType":"MolecularSequence","id":"sequence-complex-variant","text":{"status":"generated","div":"\u003cdiv xmlns\u003d\"http://www.w3.org/1999/xhtml\"\u003e\u003cp\u003e\u003cb\u003eGenerated Narrative with Details\u003c/b\u003e\u003c/p\u003e\u003cp\u003e\u003cb\u003eid\u003c/b\u003e: sequence-complex-variant\u003c/p\u003e\u003cp\u003e\u003cb\u003eidentifier\u003c/b\u003e: ?? (OFFICIAL)\u003c/p\u003e\u003cp\u003e\u003cb\u003etype\u003c/b\u003e: dna\u003c/p\u003e\u003cp\u003e\u003cb\u003ecoordinateSystem\u003c/b\u003e: 1\u003c/p\u003e\u003cp\u003e\u003cb\u003especimen\u003c/b\u003e: \u003ca\u003eMolecular Specimen ID: MLD45-Z4-1234\u003c/a\u003e\u003c/p\u003e\u003cp\u003e\u003cb\u003edevice\u003c/b\u003e: 12 lead EKG Device Metric\u003c/p\u003e\u003cp\u003e\u003cb\u003eperformer\u003c/b\u003e: \u003ca\u003eHL7\u003c/a\u003e\u003c/p\u003e\u003cp\u003e\u003cb\u003equantity\u003c/b\u003e: 25\u003c/p\u003e\u003ch3\u003eReferenceSeqs\u003c/h3\u003e\u003ctable\u003e\u003ctr\u003e\u003ctd\u003e-\u003c/td\u003e\u003ctd\u003e\u003cb\u003eReferenceSeqId\u003c/b\u003e\u003c/td\u003e\u003ctd\u003e\u003cb\u003eStrand\u003c/b\u003e\u003c/td\u003e\u003ctd\u003e\u003cb\u003eWindowStart\u003c/b\u003e\u003c/td\u003e\u003ctd\u003e\u003cb\u003eWindowEnd\u003c/b\u003e\u003c/td\u003e\u003c/tr\u003e\u003ctr\u003e\u003ctd\u003e*\u003c/td\u003e\u003ctd\u003eNC_000002.12 \u003cspan\u003e(Details : {http://www.ncbi.nlm.nih.gov/nuccore code \u0027NC_000002.12\u0027 \u003d \u0027NC_000002.12)\u003c/span\u003e\u003c/td\u003e\u003ctd\u003ewatson\u003c/td\u003e\u003ctd\u003e128273724\u003c/td\u003e\u003ctd\u003e128273754\u003c/td\u003e\u003c/tr\u003e\u003c/table\u003e\u003ch3\u003eVariants\u003c/h3\u003e\u003ctable\u003e\u003ctr\u003e\u003ctd\u003e-\u003c/td\u003e\u003ctd\u003e\u003cb\u003eStart\u003c/b\u003e\u003c/td\u003e\u003ctd\u003e\u003cb\u003eEnd\u003c/b\u003e\u003c/td\u003e\u003ctd\u003e\u003cb\u003eObservedAllele\u003c/b\u003e\u003c/td\u003e\u003ctd\u003e\u003cb\u003eReferenceAllele\u003c/b\u003e\u003c/td\u003e\u003ctd\u003e\u003cb\u003eCigar\u003c/b\u003e\u003c/td\u003e\u003c/tr\u003e\u003ctr\u003e\u003ctd\u003e*\u003c/td\u003e\u003ctd\u003e128273724\u003c/td\u003e\u003ctd\u003e128273736\u003c/td\u003e\u003ctd\u003eCTCATTGT\u003c/td\u003e\u003ctd\u003eCTCCATTGCATGCGTT\u003c/td\u003e\u003ctd\u003e3M1D4M6N2M\u003c/td\u003e\u003c/tr\u003e\u003c/table\u003e\u003cp\u003e\u003cb\u003ereadCoverage\u003c/b\u003e: 1\u003c/p\u003e\u003ch3\u003eRepositories\u003c/h3\u003e\u003ctable\u003e\u003ctr\u003e\u003ctd\u003e-\u003c/td\u003e\u003ctd\u003e\u003cb\u003eType\u003c/b\u003e\u003c/td\u003e\u003ctd\u003e\u003cb\u003eDatasetId\u003c/b\u003e\u003c/td\u003e\u003ctd\u003e\u003cb\u003eReadsetId\u003c/b\u003e\u003c/td\u003e\u003c/tr\u003e\u003ctr\u003e\u003ctd\u003e*\u003c/td\u003e\u003ctd\u003eother\u003c/td\u003e\u003ctd\u003eEnsembl\u003c/td\u003e\u003ctd\u003ev1beta2\u003c/td\u003e\u003c/tr\u003e\u003c/table\u003e\u003c/div\u003e"},"identifier":[{"use":"official"}],"type":"dna","coordinateSystem":1,"specimen":{"reference":"Specimen/genetics-example1-somatic","display":"Molecular Specimen ID: MLD45-Z4-1234"},"device":{"display":"12 lead EKG Device Metric"},"performer":{"reference":"Organization/hl7","display":"HL7"},"quantity":{"value":25},"referenceSeq":{"referenceSeqId":{"coding":[{"system":"http://www.ncbi.nlm.nih.gov/nuccore","code":"NC_000002.12"}]},"strand":"watson","windowStart":128273724,"windowEnd":128273754},"variant":[{"start":128273724,"end":128273736,"observedAllele":"CTCATTGT","referenceAllele":"CTCCATTGCATGCGTT","cigar":"3M1D4M6N2M"}],"readCoverage":1,"repository":[{"type":"other","datasetId":"Ensembl","readsetId":"v1beta2"}]}
{"resourceType":"MolecularSequence","id":"fda-vcf-comparison","text":{"status":"generated","div":"\u003cdiv xmlns\u003d\"http://www.w3.org/1999/xhtml\"\u003e\u003cp\u003e\u003cb\u003eGenerated Narrative with Details\u003c/b\u003e\u003c/p\u003e\u003cp\u003e\u003cb\u003eid\u003c/b\u003e: fda-vcf-comparison\u003c/p\u003e\u003cp\u003e\u003cb\u003ecoordinateSystem\u003c/b\u003e: 1\u003c/p\u003e\u003cp\u003e\u003cb\u003epatient\u003c/b\u003e: \u003ca\u003ePatient/example\u003c/a\u003e\u003c/p\u003e\u003ch3\u003eReferenceSeqs\u003c/h3\u003e\u003ctable\u003e\u003ctr\u003e\u003ctd\u003e-\u003c/td\u003e\u003ctd\u003e\u003cb\u003eReferenceSeqId\u003c/b\u003e\u003c/td\u003e\u003ctd\u003e\u003cb\u003eStrand\u003c/b\u003e\u003c/td\u003e\u003ctd\u003e\u003cb\u003eWindowStart\u003c/b\u003e\u003c/td\u003e\u003ctd\u003e\u003cb\u003eWindowEnd\u003c/b\u003e\u003c/td\u003e\u003c/tr\u003e\u003ctr\u003e\u003ctd\u003e*\u003c/td\u003e\u003ctd\u003eNC_000001.11 \u003cspan\u003e(Details : {http://www.ncbi.nlm.nih.gov/nuccore code \u0027NC_000001.11\u0027 \u003d \u0027NC_000001.11)\u003c/span\u003e\u003c/td\u003e\u003ctd\u003ewatson\u003c/td\u003e\u003ctd\u003e10453\u003c/td\u003e\u003ctd\u003e101770080\u003c/td\u003e\u003c/tr\u003e\u003c/table\u003e\u003ch3\u003eVariants\u003c/h3\u003e\u003ctable\u003e\u003ctr\u003e\u003ctd\u003e-\u003c/td\u003e\u003ctd\u003e\u003cb\u003eStart\u003c/b\u003e\u003c/td\u003e\u003ctd\u003e\u003cb\u003eEnd\u003c/b\u003e\u003c/td\u003e\u003ctd\u003e\u003cb\u003eObservedAllele\u003c/b\u003e\u003c/td\u003e\u003ctd\u003e\u003cb\u003eReferenceAllele\u003c/b\u003e\u003c/td\u003e\u003c/tr\u003e\u003ctr\u003e\u003ctd\u003e*\u003c/td\u003e\u003ctd\u003e13116\u003c/td\u003e\u003ctd\u003e13117\u003c/td\u003e\u003ctd\u003eT\u003c/td\u003e\u003ctd\u003eG\u003c/td\u003e\u003c/tr\u003e\u003c/table\u003e\u003ch3\u003eQualities\u003c/h3\u003e\u003ctable\u003e\u003ctr\u003e\u003ctd\u003e-\u003c/td\u003e\u003ctd\u003e\u003cb\u003eType\u003c/b\u003e\u003c/td\u003e\u003ctd\u003e\u003cb\u003eStandardSequence\u003c/b\u003e\u003c/td\u003e\u003ctd\u003e\u003cb\u003eStart\u003c/b\u003e\u003c/td\u003e\u003ctd\u003e\u003cb\u003eEnd\u003c/b\u003e\u003c/td\u003e\u003ctd\u003e\u003cb\u003eScore\u003c/b\u003e\u003c/td\u003e\u003ctd\u003e\u003cb\u003eMethod\u003c/b\u003e\u003c/td\u003e\u003ctd\u003e\u003cb\u003eTruthTP\u003c/b\u003e\u003c/td\u003e\u003ctd\u003e\u003cb\u003eTruthFN\u003c/b\u003e\u003c/td\u003e\u003ctd\u003e\u003cb\u003eQueryFP\u003c/b\u003e\u003c/td\u003e\u003ctd\u003e\u003cb\u003eGtFP\u003c/b\u003e\u003c/td\u003e\u003ctd\u003e\u003cb\u003ePrecision\u003c/b\u003e\u003c/td\u003e\u003ctd\u003e\u003cb\u003eFScore\u003c/b\u003e\u003c/td\u003e\u003c/tr\u003e\u003ctr\u003e\u003ctd\u003e*\u003c/td\u003e\u003ctd\u003eunknown\u003c/td\u003e\u003ctd\u003efile-BkZxBZ00bpJVk2q6x43b1YBx \u003cspan\u003e(Details : {https://precision.fda.gov/files/ code \u0027file-BkZxBZ00bpJVk2q6x43b1YBx\u0027 \u003d \u0027file-BkZxBZ00bpJVk2q6x43b1YBx)\u003c/span\u003e\u003c/td\u003e\u003ctd\u003e10453\u003c/td\u003e\u003ctd\u003e101770080\u003c/td\u003e\u003ctd\u003e5.000\u003c/td\u003e\u003ctd\u003eVCF Comparison \u003cspan\u003e(Details : {https://precision.fda.gov/apps/ code \u0027app-BqB9XZ8006ZZ2g5KzGXP3fpq\u0027 \u003d \u0027app-BqB9XZ8006ZZ2g5KzGXP3fpq)\u003c/span\u003e\u003c/td\u003e\u003ctd\u003e129481\u003c/td\u003e\u003ctd\u003e3168\u003c/td\u003e\u003ctd\u003e1507\u003c/td\u003e\u003ctd\u003e2186\u003c/td\u003e\u003ctd\u003e0.9885\u003c/td\u003e\u003ctd\u003e0.9823\u003c/td\u003e\u003c/tr\u003e\u003c/table\u003e\u003ch3\u003eRepositories\u003c/h3\u003e\u003ctable\u003e\u003ctr\u003e\u003ctd\u003e-\u003c/td\u003e\u003ctd\u003e\u003cb\u003eType\u003c/b\u003e\u003c/td\u003e\u003ctd\u003e\u003cb\u003eUrl\u003c/b\u003e\u003c/td\u003e\u003ctd\u003e\u003cb\u003eName\u003c/b\u003e\u003c/td\u003e\u003c/tr\u003e\u003ctr\u003e\u003ctd\u003e*\u003c/td\u003e\u003ctd\u003elogin\u003c/td\u003e\u003ctd\u003e\u003ca\u003ehttps://precision.fda.gov/comparisons/1850\u003c/a\u003e\u003c/td\u003e\u003ctd\u003eFDA\u003c/td\u003e\u003c/tr\u003e\u003c/table\u003e\u003c/div\u003e"},"coordinateSystem":1,"patient":{"reference":"Patient/example"},"referenceSeq":{"referenceSeqId":{"coding":[{"system":"http://www.ncbi.nlm.nih.gov/nuccore","code":"NC_000001.11"}]},"strand":"watson","windowStart":10453,"windowEnd":101770080},"variant":[{"start":13116,"end":13117,"observedAllele":"T","referenceAllele":"G"}],"quality":[{"type":"unknown","standardSequence":{"coding":[{"system":"https://precision.fda.gov/files/","code":"file-BkZxBZ00bpJVk2q6x43b1YBx"}]},"start":10453,"end":101770080,"score":{"value":5.000},"method":{"coding":[{"system":"https://precision.fda.gov/apps/","code":"app-BqB9XZ8006ZZ2g5KzGXP3fpq"}],"text":"VCF Comparison"},"truthTP":129481,"truthFN":3168,"queryFP":1507,"gtFP":2186,"precision":0.9885,"fScore":0.9823}],"repository":[{"type":"login","url":"https://precision.fda.gov/comparisons/1850","name":"FDA"}]}
{"resourceType":"MolecularSequence","id":"fda-vcfeval-comparison","text":{"status":"generated","div":"\u003cdiv xmlns\u003d\"http://www.w3.org/1999/xhtml\"\u003e\u003cp\u003e\u003cb\u003eGenerated Narrative with Details\u003c/b\u003e\u003c/p\u003e\u003cp\u003e\u003cb\u003eid\u003c/b\u003e: fda-vcfeval-comparison\u003c/p\u003e\u003cp\u003e\u003cb\u003ecoordinateSystem\u003c/b\u003e: 1\u003c/p\u003e\u003cp\u003e\u003cb\u003epatient\u003c/b\u003e: \u003ca\u003ePatient/example\u003c/a\u003e\u003c/p\u003e\u003ch3\u003eReferenceSeqs\u003c/h3\u003e\u003ctable\u003e\u003ctr\u003e\u003ctd\u003e-\u003c/td\u003e\u003ctd\u003e\u003cb\u003eReferenceSeqId\u003c/b\u003e\u003c/td\u003e\u003ctd\u003e\u003cb\u003eStrand\u003c/b\u003e\u003c/td\u003e\u003ctd\u003e\u003cb\u003eWindowStart\u003c/b\u003e\u003c/td\u003e\u003ctd\u003e\u003cb\u003eWindowEnd\u003c/b\u003e\u003c/td\u003e\u003c/tr\u003e\u003ctr\u003e\u003ctd\u003e*\u003c/td\u003e\u003ctd\u003eNC_000001.11 \u003cspan\u003e(Details : {http://www.ncbi.nlm.nih.gov/nuccore code \u0027NC_000001.11\u0027 \u003d \u0027NC_000001.11)\u003c/span\u003e\u003c/td\u003e\u003ctd\u003ewatson\u003c/td\u003e\u003ctd\u003e10453\u003c/td\u003e\u003ctd\u003e101770080\u003c/td\u003e\u003c/tr\u003e\u003c/table\u003e\u003ch3\u003eVariants\u003c/h3\u003e\u003ctable\u003e\u003ctr\u003e\u003ctd\u003e-\u003c/td\u003e\u003ctd\u003e\u003cb\u003eStart\u003c/b\u003e\u003c/td\u003e\u003ctd\u003e\u003cb\u003eEnd\u003c/b\u003e\u003c/td\u003e\u003ctd\u003e\u003cb\u003eObservedAllele\u003c/b\u003e\u003c/td\u003e\u003ctd\u003e\u003cb\u003eReferenceAllele\u003c/b\u003e\u003c/td\u003e\u003c/tr\u003e\u003ctr\u003e\u003ctd\u003e*\u003c/td\u003e\u003ctd\u003e13116\u003c/td\u003e\u003ctd\u003e13117\u003c/td\u003e\u003ctd\u003eT\u003c/td\u003e\u003ctd\u003eG\u003c/td\u003e\u003c/tr\u003e\u003c/table\u003e\u003cblockquote\u003e\u003cp\u003e\u003cb\u003equality\u003c/b\u003e\u003c/p\u003e\u003cp\u003e\u003cb\u003etype\u003c/b\u003e: indel\u003c/p\u003e\u003cp\u003e\u003cb\u003estandardSequence\u003c/b\u003e: file-BkZxBZ00bpJVk2q6x43b1YBx \u003cspan\u003e(Details : {https://precision.fda.gov/files/ code \u0027file-BkZxBZ00bpJVk2q6x43b1YBx\u0027 \u003d \u0027file-BkZxBZ00bpJVk2q6x43b1YBx)\u003c/span\u003e\u003c/p\u003e\u003cp\u003e\u003cb\u003estart\u003c/b\u003e: 10453\u003c/p\u003e\u003cp\u003e\u003cb\u003eend\u003c/b\u003e: 101770080\u003c/p\u003e\u003cp\u003e\u003cb\u003emethod\u003c/b\u003e: Vcfeval + Hap.py Comparison \u003cspan\u003e(Details : {https://precision.fda.gov/apps/ code \u0027app-BxfGF8j02pBZzZxbzZxP725P\u0027 \u003d \u0027app-BxfGF8j02pBZzZxbzZxP725P)\u003c/span\u003e\u003c/p\u003e\u003cp\u003e\u003cb\u003etruthTP\u003c/b\u003e: 7749\u003c/p\u003e\u003cp\u003e\u003cb\u003etruthFN\u003c/b\u003e: 2554\u003c/p\u003e\u003cp\u003e\u003cb\u003equeryFP\u003c/b\u003e: 10670\u003c/p\u003e\u003cp\u003e\u003cb\u003egtFP\u003c/b\u003e: 2186\u003c/p\u003e\u003cp\u003e\u003cb\u003eprecision\u003c/b\u003e: 0.428005\u003c/p\u003e\u003cp\u003e\u003cb\u003erecall\u003c/b\u003e: 0.752111\u003c/p\u003e\u003c/blockquote\u003e\u003cblockquote\u003e\u003cp\u003e\u003cb\u003equality\u003c/b\u003e\u003c/p\u003e\u003cp\u003e\u003cb\u003etype\u003c/b\u003e: snp\u003c/p\u003e\u003cp\u003e\u003cb\u003estandardSequence\u003c/b\u003e: file-BkZxBZ00bpJVk2q6x43b1YBx \u003cspan\u003e(Details : {https://precision.fda.gov/files/ code \u0027file-BkZxBZ00bpJVk2q6x43b1YBx\u0027 \u003d \u0027file-BkZxBZ00bpJVk2q6x43b1YBx)\u003c/span\u003e\u003c/p\u003e\u003cp\u003e\u003cb\u003estart\u003c/b\u003e: 10453\u003c/p\u003e\u003cp\u003e\u003cb\u003eend\u003c/b\u003e: 101770080\u003c/p\u003e\u003cp\u003e\u003cb\u003emethod\u003c/b\u003e: Vcfeval + Hap.py Comparison \u003cspan\u003e(Details : {https://precision.fda.gov/apps/ code \u0027app-BxfGF8j02pBZzZxbzZxP725P\u0027 \u003d \u0027app-BxfGF8j02pBZzZxbzZxP725P)\u003c/span\u003e\u003c/p\u003e\u003cp\u003e\u003cb\u003etruthTP\u003c/b\u003e: 92106\u003c/p\u003e\u003cp\u003e\u003cb\u003etruthFN\u003c/b\u003e: 1247\u003c/p\u003e\u003cp\u003e\u003cb\u003equeryFP\u003c/b\u003e: 21744\u003c/p\u003e\u003cp\u003e\u003cb\u003egtFP\u003c/b\u003e: 493\u003c/p\u003e\u003cp\u003e\u003cb\u003eprecision\u003c/b\u003e: 0.808602\u003c/p\u003e\u003cp\u003e\u003cb\u003erecall\u003c/b\u003e: 0.986642\u003c/p\u003e\u003c/blockquote\u003e\u003ch3\u003eRepositories\u003c/h3\u003e\u003ctable\u003e\u003ctr\u003e\u003ctd\u003e-\u003c/td\u003e\u003ctd\u003e\u003cb\u003eType\u003c/b\u003e\u003c/td\u003e\u003ctd\u003e\u003cb\u003eUrl\u003c/b\u003e\u003c/td\u003e\u003ctd\u003e\u003cb\u003eName\u003c/b\u003e\u003c/td\u003e\u003c/tr\u003e\u003ctr\u003e\u003ctd\u003e*\u003c/td\u003e\u003ctd\u003elogin\u003c/td\u003e\u003ctd\u003e\u003ca\u003ehttps://precision.fda.gov/jobs/job-ByxYPx809jFVy21KJG74Jg3Y\u003c/a\u003e\u003c/td\u003e\u003ctd\u003eFDA\u003c/td\u003e\u003c/tr\u003e\u003c/table\u003e\u003c/div\u003e"},"coordinateSystem":1,"patient":{"reference":"Patient/example"},"referenceSeq":{"referenceSeqId":{"coding":[{"system":"http://www.ncbi.nlm.nih.gov/nuccore","code":"NC_000001.11"}]},"strand":"watson","windowStart":10453,"windowEnd":101770080},"variant":[{"start":13116,"end":13117,"observedAllele":"T","referenceAllele":"G"}],"quality":[{"type":"indel","standardSequence":{"coding":[{"system":"https://precision.fda.gov/files/","code":"file-BkZxBZ00bpJVk2q6x43b1YBx"}]},"start":10453,"end":101770080,"method":{"coding":[{"system":"https://precision.fda.gov/apps/","code":"app-BxfGF8j02pBZzZxbzZxP725P"}],"text":"Vcfeval + Hap.py Comparison"},"truthTP":7749,"truthFN":2554,"queryFP":10670,"gtFP":2186,"precision":0.428005,"recall":0.752111},{"type":"snp","standardSequence":{"coding":[{"system":"https://precision.fda.gov/files/","code":"file-BkZxBZ00bpJVk2q6x43b1YBx"}]},"start":10453,"end":101770080,"method":{"coding":[{"system":"https://precision.fda.gov/apps/","code":"app-BxfGF8j02pBZzZxbzZxP725P"}],"text":"Vcfeval + Hap.py Comparison"},"truthTP":92106,"truthFN":1247,"queryFP":21744,"gtFP":493,"precision":0.808602,"recall":0.986642}],"repository":[{"type":"login","url":"https://precision.fda.gov/jobs/job-ByxYPx809jFVy21KJG74Jg3Y","name":"FDA"}]}
{"resourceType":"MolecularSequence","id":"fda-example","text":{"status":"generated","div":"\u003cdiv xmlns\u003d\"http://www.w3.org/1999/xhtml\"\u003e\u003cp\u003e\u003cb\u003eGenerated Narrative with Details\u003c/b\u003e\u003c/p\u003e\u003cp\u003e\u003cb\u003eid\u003c/b\u003e: fda-example\u003c/p\u003e\u003cp\u003e\u003cb\u003etype\u003c/b\u003e: dna\u003c/p\u003e\u003cp\u003e\u003cb\u003ecoordinateSystem\u003c/b\u003e: 1\u003c/p\u003e\u003cp\u003e\u003cb\u003epatient\u003c/b\u003e: \u003ca\u003ePatient/example\u003c/a\u003e\u003c/p\u003e\u003ch3\u003eReferenceSeqs\u003c/h3\u003e\u003ctable\u003e\u003ctr\u003e\u003ctd\u003e-\u003c/td\u003e\u003ctd\u003e\u003cb\u003eReferenceSeqId\u003c/b\u003e\u003c/td\u003e\u003ctd\u003e\u003cb\u003eStrand\u003c/b\u003e\u003c/td\u003e\u003ctd\u003e\u003cb\u003eWindowStart\u003c/b\u003e\u003c/td\u003e\u003ctd\u003e\u003cb\u003eWindowEnd\u003c/b\u003e\u003c/td\u003e\u003c/tr\u003e\u003ctr\u003e\u003ctd\u003e*\u003c/td\u003e\u003ctd\u003eNC_000001.11 \u003cspan\u003e(Details : {http://www.ncbi.nlm.nih.gov/nuccore code \u0027NC_000001.11\u0027 \u003d \u0027NC_000001.11)\u003c/span\u003e\u003c/td\u003e\u003ctd\u003ewatson\u003c/td\u003e\u003ctd\u003e10453\u003c/td\u003e\u003ctd\u003e101770080\u003c/td\u003e\u003c/tr\u003e\u003c/table\u003e\u003ch3\u003eVariants\u003c/h3\u003e\u003ctable\u003e\u003ctr\u003e\u003ctd\u003e-\u003c/td\u003e\u003ctd\u003e\u003cb\u003eStart\u003c/b\u003e\u003c/td\u003e\u003ctd\u003e\u003cb\u003eEnd\u003c/b\u003e\u003c/td\u003e\u003ctd\u003e\u003cb\u003eObservedAllele\u003c/b\u003e\u003c/td\u003e\u003ctd\u003e\u003cb\u003eReferenceAllele\u003c/b\u003e\u003c/td\u003e\u003c/tr\u003e\u003ctr\u003e\u003ctd\u003e*\u003c/td\u003e\u003ctd\u003e13116\u003c/td\u003e\u003ctd\u003e13117\u003c/td\u003e\u003ctd\u003eT\u003c/td\u003e\u003ctd\u003eG\u003c/td\u003e\u003c/tr\u003e\u003c/table\u003e\u003ch3\u003eQualities\u003c/h3\u003e\u003ctable\u003e\u003ctr\u003e\u003ctd\u003e-\u003c/td\u003e\u003ctd\u003e\u003cb\u003eType\u003c/b\u003e\u003c/td\u003e\u003ctd\u003e\u003cb\u003eStandardSequence\u003c/b\u003e\u003c/td\u003e\u003ctd\u003e\u003cb\u003eStart\u003c/b\u003e\u003c/td\u003e\u003ctd\u003e\u003cb\u003eEnd\u003c/b\u003e\u003c/td\u003e\u003ctd\u003e\u003cb\u003eMethod\u003c/b\u003e\u003c/td\u003e\u003ctd\u003e\u003cb\u003eTruthTP\u003c/b\u003e\u003c/td\u003e\u003ctd\u003e\u003cb\u003eQueryTP\u003c/b\u003e\u003c/td\u003e\u003ctd\u003e\u003cb\u003eTruthFN\u003c/b\u003e\u003c/td\u003e\u003ctd\u003e\u003cb\u003eQueryFP\u003c/b\u003e\u003c/td\u003e\u003ctd\u003e\u003cb\u003eGtFP\u003c/b\u003e\u003c/td\u003e\u003ctd\u003e\u003cb\u003ePrecision\u003c/b\u003e\u003c/td\u003e\u003ctd\u003e\u003cb\u003eRecall\u003c/b\u003e\u003c/td\u003e\u003ctd\u003e\u003cb\u003eFScore\u003c/b\u003e\u003c/td\u003e\u003c/tr\u003e\u003ctr\u003e\u003ctd\u003e*\u003c/td\u003e\u003ctd\u003esnp\u003c/td\u003e\u003ctd\u003efile-Bk50V4Q0qVb65P0v2VPbfYPZ \u003cspan\u003e(Details : {https://precision.fda.gov/files/ code \u0027file-Bk50V4Q0qVb65P0v2VPbfYPZ\u0027 \u003d \u0027file-Bk50V4Q0qVb65P0v2VPbfYPZ)\u003c/span\u003e\u003c/td\u003e\u003ctd\u003e10453\u003c/td\u003e\u003ctd\u003e101770080\u003c/td\u003e\u003ctd\u003eVcfeval + Hap.py Comparison \u003cspan\u003e(Details : {https://precision.fda.gov/jobs/ code \u0027job-ByxYPx809jFVy21KJG74Jg3Y\u0027 \u003d \u0027job-ByxYPx809jFVy21KJG74Jg3Y)\u003c/span\u003e\u003c/td\u003e\u003ctd\u003e7749\u003c/td\u003e\u003ctd\u003e7984\u003c/td\u003e\u003ctd\u003e2554\u003c/td\u003e\u003ctd\u003e10670\u003c/td\u003e\u003ctd\u003e2186\u003c/td\u003e\u003ctd\u003e0.428005\u003c/td\u003e\u003ctd\u003e0.752111\u003c/td\u003e\u003ctd\u003e0.545551\u003c/td\u003e\u003c/tr\u003e\u003c/table\u003e\u003ch3\u003eRepositories\u003c/h3\u003e\u003ctable\u003e\u003ctr\u003e\u003ctd\u003e-\u003c/td\u003e\u003ctd\u003e\u003cb\u003eType\u003c/b\u003e\u003c/td\u003e\u003ctd\u003e\u003cb\u003eUrl\u003c/b\u003e\u003c/td\u003e\u003ctd\u003e\u003cb\u003eName\u003c/b\u003e\u003c/td\u003e\u003ctd\u003e\u003cb\u003eVariantsetId\u003c/b\u003e\u003c/td\u003e\u003c/tr\u003e\u003ctr\u003e\u003ctd\u003e*\u003c/td\u003e\u003ctd\u003elogin\u003c/td\u003e\u003ctd\u003e\u003ca\u003ehttps://precision.fda.gov/files/file-Bx37ZK009P4bX5g3qjkFZV38\u003c/a\u003e\u003c/td\u003e\u003ctd\u003eFDA\u003c/td\u003e\u003ctd\u003efile-Bx37ZK009P4bX5g3qjkFZV38\u003c/td\u003e\u003c/tr\u003e\u003c/table\u003e\u003c/div\u003e"},"type":"dna","coordinateSystem":1,"patient":{"reference":"Patient/example"},"referenceSeq":{"referenceSeqId":{"coding":[{"system":"http://www.ncbi.nlm.nih.gov/nuccore","code":"NC_000001.11"}]},"strand":"watson","windowStart":10453,"windowEnd":101770080},"variant":[{"start":13116,"end":13117,"observedAllele":"T","referenceAllele":"G"}],"quality":[{"type":"snp","standardSequence":{"coding":[{"system":"https://precision.fda.gov/files/","code":"file-Bk50V4Q0qVb65P0v2VPbfYPZ"}]},"start":10453,"end":101770080,"method":{"coding":[{"system":"https://precision.fda.gov/jobs/","code":"job-ByxYPx809jFVy21KJG74Jg3Y"}],"text":"Vcfeval + Hap.py Comparison"},"truthTP":7749,"queryTP":7984,"truthFN":2554,"queryFP":10670,"gtFP":2186,"precision":0.428005,"recall":0.752111,"fScore":0.545551}],"repository":[{"type":"login","url":"https://precision.fda.gov/files/file-Bx37ZK009P4bX5g3qjkFZV38","name":"FDA","variantsetId":"file-Bx37ZK009P4bX5g3qjkFZV38"}]}
{"resourceType":"MolecularSequence","id":"example-pgx-1","text":{"status":"generated","div":"\u003cdiv xmlns\u003d\"http://www.w3.org/1999/xhtml\"\u003e\u003cp\u003e\u003cb\u003eGenerated Narrative with Details\u003c/b\u003e\u003c/p\u003e\u003cp\u003e\u003cb\u003eid\u003c/b\u003e: example-pgx-1\u003c/p\u003e\u003cp\u003e\u003cb\u003etype\u003c/b\u003e: dna\u003c/p\u003e\u003cp\u003e\u003cb\u003ecoordinateSystem\u003c/b\u003e: 0\u003c/p\u003e\u003cp\u003e\u003cb\u003epatient\u003c/b\u003e: \u003ca\u003ePatient/example\u003c/a\u003e\u003c/p\u003e\u003ch3\u003eReferenceSeqs\u003c/h3\u003e\u003ctable\u003e\u003ctr\u003e\u003ctd\u003e-\u003c/td\u003e\u003ctd\u003e\u003cb\u003eOrientation\u003c/b\u003e\u003c/td\u003e\u003ctd\u003e\u003cb\u003eReferenceSeqId\u003c/b\u003e\u003c/td\u003e\u003ctd\u003e\u003cb\u003eStrand\u003c/b\u003e\u003c/td\u003e\u003ctd\u003e\u003cb\u003eWindowStart\u003c/b\u003e\u003c/td\u003e\u003ctd\u003e\u003cb\u003eWindowEnd\u003c/b\u003e\u003c/td\u003e\u003c/tr\u003e\u003ctr\u003e\u003ctd\u003e*\u003c/td\u003e\u003ctd\u003esense\u003c/td\u003e\u003ctd\u003eNG_007726.3 \u003cspan\u003e(Details : {http://www.ncbi.nlm.nih.gov/nuccore code \u0027NG_007726.3\u0027 \u003d \u0027NG_007726.3)\u003c/span\u003e\u003c/td\u003e\u003ctd\u003ewatson\u003c/td\u003e\u003ctd\u003e55227970\u003c/td\u003e\u003ctd\u003e55227980\u003c/td\u003e\u003c/tr\u003e\u003c/table\u003e\u003ch3\u003eVariants\u003c/h3\u003e\u003ctable\u003e\u003ctr\u003e\u003ctd\u003e-\u003c/td\u003e\u003ctd\u003e\u003cb\u003eStart\u003c/b\u003e\u003c/td\u003e\u003ctd\u003e\u003cb\u003eEnd\u003c/b\u003e\u003c/td\u003e\u003ctd\u003e\u003cb\u003eObservedAllele\u003c/b\u003e\u003c/td\u003e\u003ctd\u003e\u003cb\u003eReferenceAllele\u003c/b\u003e\u003c/td\u003e\u003ctd\u003e\u003cb\u003eVariantPointer\u003c/b\u003e\u003c/td\u003e\u003c/tr\u003e\u003ctr\u003e\u003ctd\u003e*\u003c/td\u003e\u003ctd\u003e55227976\u003c/td\u003e\u003ctd\u003e55227977\u003c/td\u003e\u003ctd\u003eG\u003c/td\u003e\u003ctd\u003eT\u003c/td\u003e\u003ctd\u003e\u003ca\u003eTarget Haplotype Observation\u003c/a\u003e\u003c/td\u003e\u003c/tr\u003e\u003c/table\u003e\u003c/div\u003e"},"type":"dna","coordinateSystem":0,"patient":{"reference":"Patient/example"},"referenceSeq":{"orientation":"sense","referenceSeqId":{"coding":[{"system":"http://www.ncbi.nlm.nih.gov/nuccore","code":"NG_007726.3"}]},"strand":"watson","windowStart":55227970,"windowEnd":55227980},"variant":[{"start":55227976,"end":55227977,"observedAllele":"G","referenceAllele":"T","variantPointer":{"reference":"Observation/example-haplotype1","display":"Target Haplotype Observation"}}]}
{"resourceType":"MolecularSequence","id":"example-pgx-2","text":{"status":"generated","div":"\u003cdiv xmlns\u003d\"http://www.w3.org/1999/xhtml\"\u003e\u003cp\u003e\u003cb\u003eGenerated Narrative with Details\u003c/b\u003e\u003c/p\u003e\u003cp\u003e\u003cb\u003eid\u003c/b\u003e: example-pgx-2\u003c/p\u003e\u003cp\u003e\u003cb\u003etype\u003c/b\u003e: dna\u003c/p\u003e\u003cp\u003e\u003cb\u003ecoordinateSystem\u003c/b\u003e: 0\u003c/p\u003e\u003cp\u003e\u003cb\u003epatient\u003c/b\u003e: \u003ca\u003ePatient/example\u003c/a\u003e\u003c/p\u003e\u003ch3\u003eReferenceSeqs\u003c/h3\u003e\u003ctable\u003e\u003ctr\u003e\u003ctd\u003e-\u003c/td\u003e\u003ctd\u003e\u003cb\u003eOrientation\u003c/b\u003e\u003c/td\u003e\u003ctd\u003e\u003cb\u003eReferenceSeqId\u003c/b\u003e\u003c/td\u003e\u003ctd\u003e\u003cb\u003eStrand\u003c/b\u003e\u003c/td\u003e\u003ctd\u003e\u003cb\u003eWindowStart\u003c/b\u003e\u003c/td\u003e\u003ctd\u003e\u003cb\u003eWindowEnd\u003c/b\u003e\u003c/td\u003e\u003c/tr\u003e\u003ctr\u003e\u003ctd\u003e*\u003c/td\u003e\u003ctd\u003esense\u003c/td\u003e\u003ctd\u003eNG_007726.3 \u003cspan\u003e(Details : {http://www.ncbi.nlm.nih.gov/nuccore code \u0027NG_007726.3\u0027 \u003d \u0027NG_007726.3)\u003c/span\u003e\u003c/td\u003e\u003ctd\u003ewatson\u003c/td\u003e\u003ctd\u003e55227970\u003c/td\u003e\u003ctd\u003e55227980\u003c/td\u003e\u003c/tr\u003e\u003c/table\u003e\u003ch3\u003eVariants\u003c/h3\u003e\u003ctable\u003e\u003ctr\u003e\u003ctd\u003e-\u003c/td\u003e\u003ctd\u003e\u003cb\u003eStart\u003c/b\u003e\u003c/td\u003e\u003ctd\u003e\u003cb\u003eEnd\u003c/b\u003e\u003c/td\u003e\u003ctd\u003e\u003cb\u003eObservedAllele\u003c/b\u003e\u003c/td\u003e\u003ctd\u003e\u003cb\u003eReferenceAllele\u003c/b\u003e\u003c/td\u003e\u003ctd\u003e\u003cb\u003eVariantPointer\u003c/b\u003e\u003c/td\u003e\u003c/tr\u003e\u003ctr\u003e\u003ctd\u003e*\u003c/td\u003e\u003ctd\u003e55227978\u003c/td\u003e\u003ctd\u003e55227979\u003c/td\u003e\u003ctd\u003eG\u003c/td\u003e\u003ctd\u003eT\u003c/td\u003e\u003ctd\u003e\u003ca\u003eTarget Haplotype Observation\u003c/a\u003e\u003c/td\u003e\u003c/tr\u003e\u003c/table\u003e\u003c/div\u003e"},"type":"dna","coordinateSystem":0,"patient":{"reference":"Patient/example"},"referenceSeq":{"orientation":"sense","referenceSeqId":{"coding":[{"system":"http://www.ncbi.nlm.nih.gov/nuccore","code":"NG_007726.3"}]},"strand":"watson","windowStart":55227970,"windowEnd":55227980},"variant":[{"start":55227978,"end":55227979,"observedAllele":"G","referenceAllele":"T","variantPointer":{"reference":"Observation/example-haplotype2","display":"Target Haplotype Observation"}}]}
{"resourceType":"MolecularSequence","id":"example-TPMT-one","text":{"status":"generated","div":"\u003cdiv xmlns\u003d\"http://www.w3.org/1999/xhtml\"\u003e\u003cp\u003e\u003cb\u003eGenerated Narrative with Details\u003c/b\u003e\u003c/p\u003e\u003cp\u003e\u003cb\u003eid\u003c/b\u003e: example-TPMT-one\u003c/p\u003e\u003cp\u003e\u003cb\u003etype\u003c/b\u003e: dna\u003c/p\u003e\u003cp\u003e\u003cb\u003ecoordinateSystem\u003c/b\u003e: 1\u003c/p\u003e\u003cp\u003e\u003cb\u003epatient\u003c/b\u003e: \u003ca\u003ePatient/example\u003c/a\u003e\u003c/p\u003e\u003ch3\u003eReferenceSeqs\u003c/h3\u003e\u003ctable\u003e\u003ctr\u003e\u003ctd\u003e-\u003c/td\u003e\u003ctd\u003e\u003cb\u003eReferenceSeqId\u003c/b\u003e\u003c/td\u003e\u003ctd\u003e\u003cb\u003eStrand\u003c/b\u003e\u003c/td\u003e\u003ctd\u003e\u003cb\u003eWindowStart\u003c/b\u003e\u003c/td\u003e\u003ctd\u003e\u003cb\u003eWindowEnd\u003c/b\u003e\u003c/td\u003e\u003c/tr\u003e\u003ctr\u003e\u003ctd\u003e*\u003c/td\u003e\u003ctd\u003eNT_007592.15 \u003cspan\u003e(Details : {http://www.ncbi.nlm.nih.gov/nuccore code \u0027NT_007592.15\u0027 \u003d \u0027NT_007592.15)\u003c/span\u003e\u003c/td\u003e\u003ctd\u003ewatson\u003c/td\u003e\u003ctd\u003e18130918\u003c/td\u003e\u003ctd\u003e18143955\u003c/td\u003e\u003c/tr\u003e\u003c/table\u003e\u003ch3\u003eVariants\u003c/h3\u003e\u003ctable\u003e\u003ctr\u003e\u003ctd\u003e-\u003c/td\u003e\u003ctd\u003e\u003cb\u003eStart\u003c/b\u003e\u003c/td\u003e\u003ctd\u003e\u003cb\u003eEnd\u003c/b\u003e\u003c/td\u003e\u003ctd\u003e\u003cb\u003eObservedAllele\u003c/b\u003e\u003c/td\u003e\u003ctd\u003e\u003cb\u003eReferenceAllele\u003c/b\u003e\u003c/td\u003e\u003c/tr\u003e\u003ctr\u003e\u003ctd\u003e*\u003c/td\u003e\u003ctd\u003e18139214\u003c/td\u003e\u003ctd\u003e18139214\u003c/td\u003e\u003ctd\u003eA\u003c/td\u003e\u003ctd\u003eG\u003c/td\u003e\u003c/tr\u003e\u003c/table\u003e\u003cp\u003e\u003cb\u003eobservedSeq\u003c/b\u003e: T-C-C-C-A-C-C-C\u003c/p\u003e\u003c/div\u003e"},"type":"dna","coordinateSystem":1,"patient":{"reference":"Patient/example"},"referenceSeq":{"referenceSeqId":{"coding":[{"system":"http://www.ncbi.nlm.nih.gov/nuccore","code":"NT_007592.15"}]},"strand":"watson","windowStart":18130918,"windowEnd":18143955},"variant":[{"start":18139214,"end":18139214,"observedAllele":"A","referenceAllele":"G"}],"observedSeq":"T-C-C-C-A-C-C-C"}
{"resourceType":"MolecularSequence","id":"example-TPMT-two","text":{"status":"generated","div":"\u003cdiv xmlns\u003d\"http://www.w3.org/1999/xhtml\"\u003e\u003cp\u003e\u003cb\u003eGenerated Narrative with Details\u003c/b\u003e\u003c/p\u003e\u003cp\u003e\u003cb\u003eid\u003c/b\u003e: example-TPMT-two\u003c/p\u003e\u003cp\u003e\u003cb\u003etype\u003c/b\u003e: dna\u003c/p\u003e\u003cp\u003e\u003cb\u003ecoordinateSystem\u003c/b\u003e: 1\u003c/p\u003e\u003cp\u003e\u003cb\u003epatient\u003c/b\u003e: \u003ca\u003ePatient/example\u003c/a\u003e\u003c/p\u003e\u003ch3\u003eReferenceSeqs\u003c/h3\u003e\u003ctable\u003e\u003ctr\u003e\u003ctd\u003e-\u003c/td\u003e\u003ctd\u003e\u003cb\u003eReferenceSeqId\u003c/b\u003e\u003c/td\u003e\u003ctd\u003e\u003cb\u003eStrand\u003c/b\u003e\u003c/td\u003e\u003ctd\u003e\u003cb\u003eWindowStart\u003c/b\u003e\u003c/td\u003e\u003ctd\u003e\u003cb\u003eWindowEnd\u003c/b\u003e\u003c/td\u003e\u003c/tr\u003e\u003ctr\u003e\u003ctd\u003e*\u003c/td\u003e\u003ctd\u003eNT_007592.15 \u003cspan\u003e(Details : {http://www.ncbi.nlm.nih.gov/nuccore code \u0027NT_007592.15\u0027 \u003d \u0027NT_007592.15)\u003c/span\u003e\u003c/td\u003e\u003ctd\u003ewatson\u003c/td\u003e\u003ctd\u003e18130918\u003c/td\u003e\u003ctd\u003e18143955\u003c/td\u003e\u003c/tr\u003e\u003c/table\u003e\u003ch3\u003eVariants\u003c/h3\u003e\u003ctable\u003e\u003ctr\u003e\u003ctd\u003e-\u003c/td\u003e\u003ctd\u003e\u003cb\u003eStart\u003c/b\u003e\u003c/td\u003e\u003ctd\u003e\u003cb\u003eEnd\u003c/b\u003e\u003c/td\u003e\u003ctd\u003e\u003cb\u003eObservedAllele\u003c/b\u003e\u003c/td\u003e\u003ctd\u003e\u003cb\u003eReferenceAllele\u003c/b\u003e\u003c/td\u003e\u003c/tr\u003e\u003ctr\u003e\u003ctd\u003e*\u003c/td\u003e\u003ctd\u003e18131012\u003c/td\u003e\u003ctd\u003e18131012\u003c/td\u003e\u003ctd\u003eT\u003c/td\u003e\u003ctd\u003eC\u003c/td\u003e\u003c/tr\u003e\u003c/table\u003e\u003cp\u003e\u003cb\u003eobservedSeq\u003c/b\u003e: T-C-T-C-G-C-C-C\u003c/p\u003e\u003c/div\u003e"},"type":"dna","coordinateSystem":1,"patient":{"reference":"Patient/example"},"referenceSeq":{"referenceSeqId":{"coding":[{"system":"http://www.ncbi.nlm.nih.gov/nuccore","code":"NT_007592.15"}]},"strand":"watson","windowStart":18130918,"windowEnd":18143955},"variant":[{"start":18131012,"end":18131012,"observedAllele":"T","referenceAllele":"C"}],"observedSeq":"T-C-T-C-G-C-C-C"}
{"resourceType":"MolecularSequence","id":"breastcancer","text":{"status":"generated","div":"\u003cdiv xmlns\u003d\"http://www.w3.org/1999/xhtml\"\u003e\u003cp\u003e\u003cb\u003eGenerated Narrative with Details\u003c/b\u003e\u003c/p\u003e\u003cp\u003e\u003cb\u003eid\u003c/b\u003e: breastcancer\u003c/p\u003e\u003cp\u003e\u003cb\u003etype\u003c/b\u003e: rna\u003c/p\u003e\u003cp\u003e\u003cb\u003ecoordinateSystem\u003c/b\u003e: 0\u003c/p\u003e\u003cp\u003e\u003cb\u003epatient\u003c/b\u003e: \u003ca\u003ePatient/brcapat\u003c/a\u003e\u003c/p\u003e\u003ch3\u003eReferenceSeqs\u003c/h3\u003e\u003ctable\u003e\u003ctr\u003e\u003ctd\u003e-\u003c/td\u003e\u003ctd\u003e\u003cb\u003eReferenceSeqId\u003c/b\u003e\u003c/td\u003e\u003ctd\u003e\u003cb\u003eWindowStart\u003c/b\u003e\u003c/td\u003e\u003ctd\u003e\u003cb\u003eWindowEnd\u003c/b\u003e\u003c/td\u003e\u003c/tr\u003e\u003ctr\u003e\u003ctd\u003e*\u003c/td\u003e\u003ctd\u003eHomo sapiens BRCA2, DNA repair associated (BRCA2), mRNA \u003cspan\u003e(Details : {http://www.ncbi.nlm.nih.gov/nuccore/ code \u0027NM_000059.3\u0027 \u003d \u0027NM_000059.3\u0027, given as \u0027Homo sapiens BRCA2, DNA repair associated (BRCA2), mRNA\u0027})\u003c/span\u003e\u003c/td\u003e\u003ctd\u003e101488058\u003c/td\u003e\u003ctd\u003e101499444\u003c/td\u003e\u003c/tr\u003e\u003c/table\u003e\u003ch3\u003eVariants\u003c/h3\u003e\u003ctable\u003e\u003ctr\u003e\u003ctd\u003e-\u003c/td\u003e\u003ctd\u003e\u003cb\u003eStart\u003c/b\u003e\u003c/td\u003e\u003ctd\u003e\u003cb\u003eEnd\u003c/b\u003e\u003c/td\u003e\u003ctd\u003e\u003cb\u003eObservedAllele\u003c/b\u003e\u003c/td\u003e\u003ctd\u003e\u003cb\u003eReferenceAllele\u003c/b\u003e\u003c/td\u003e\u003c/tr\u003e\u003ctr\u003e\u003ctd\u003e*\u003c/td\u003e\u003ctd\u003e32316186\u003c/td\u003e\u003ctd\u003e32316187\u003c/td\u003e\u003ctd\u003eA\u003c/td\u003e\u003ctd\u003eC\u003c/td\u003e\u003c/tr\u003e\u003c/table\u003e\u003c/div\u003e"},"type":"rna","coordinateSystem":0,"patient":{"reference":"Patient/brcapat"},"referenceSeq":{"referenceSeqId":{"coding":[{"system":"http://www.ncbi.nlm.nih.gov/nuccore/","code":"NM_000059.3","display":"Homo sapiens BRCA2, DNA repair associated (BRCA2), mRNA"}]},"windowStart":101488058,"windowEnd":101499444},"variant":[{"start":32316186,"end":32316187,"observedAllele":"A","referenceAllele":"C"}]}
{"resourceType":"MolecularSequence","id":"graphic-example-1","text":{"status":"generated","div":"\u003cdiv xmlns\u003d\"http://www.w3.org/1999/xhtml\"\u003e\u003cp\u003e\u003cb\u003eGenerated Narrative with Details\u003c/b\u003e\u003c/p\u003e\u003cp\u003e\u003cb\u003eid\u003c/b\u003e: graphic-example-1\u003c/p\u003e\u003cp\u003e\u003cb\u003etype\u003c/b\u003e: dna\u003c/p\u003e\u003cp\u003e\u003cb\u003ecoordinateSystem\u003c/b\u003e: 0\u003c/p\u003e\u003ch3\u003eReferenceSeqs\u003c/h3\u003e\u003ctable\u003e\u003ctr\u003e\u003ctd\u003e-\u003c/td\u003e\u003ctd\u003e\u003cb\u003eReferenceSeqId\u003c/b\u003e\u003c/td\u003e\u003ctd\u003e\u003cb\u003eStrand\u003c/b\u003e\u003c/td\u003e\u003ctd\u003e\u003cb\u003eWindowStart\u003c/b\u003e\u003c/td\u003e\u003ctd\u003e\u003cb\u003eWindowEnd\u003c/b\u003e\u003c/td\u003e\u003c/tr\u003e\u003ctr\u003e\u003ctd\u003e*\u003c/td\u003e\u003ctd\u003eNC_000002.12 \u003cspan\u003e(Details : {http://www.ncbi.nlm.nih.gov/nuccore code \u0027NC_000002.12\u0027 \u003d \u0027NC_000002.12)\u003c/span\u003e\u003c/td\u003e\u003ctd\u003ewatson\u003c/td\u003e\u003ctd\u003e128273724\u003c/td\u003e\u003ctd\u003e128273732\u003c/td\u003e\u003c/tr\u003e\u003c/table\u003e\u003ch3\u003eVariants\u003c/h3\u003e\u003ctable\u003e\u003ctr\u003e\u003ctd\u003e-\u003c/td\u003e\u003ctd\u003e\u003cb\u003eStart\u003c/b\u003e\u003c/td\u003e\u003ctd\u003e\u003cb\u003eEnd\u003c/b\u003e\u003c/td\u003e\u003ctd\u003e\u003cb\u003eObservedAllele\u003c/b\u003e\u003c/td\u003e\u003ctd\u003e\u003cb\u003eReferenceAllele\u003c/b\u003e\u003c/td\u003e\u003ctd\u003e\u003cb\u003eCigar\u003c/b\u003e\u003c/td\u003e\u003c/tr\u003e\u003ctr\u003e\u003ctd\u003e*\u003c/td\u003e\u003ctd\u003e128273725\u003c/td\u003e\u003ctd\u003e128273726\u003c/td\u003e\u003ctd\u003eG\u003c/td\u003e\u003ctd\u003eT\u003c/td\u003e\u003ctd\u003e1M\u003c/td\u003e\u003c/tr\u003e\u003c/table\u003e\u003cp\u003e\u003cb\u003epointer\u003c/b\u003e: \u003ca\u003eMolecularSequence/graphic-example-2\u003c/a\u003e\u003c/p\u003e\u003c/div\u003e"},"type":"dna","coordinateSystem":0,"referenceSeq":{"referenceSeqId":{"coding":[{"system":"http://www.ncbi.nlm.nih.gov/nuccore","code":"NC_000002.12"}]},"strand":"watson","windowStart":128273724,"windowEnd":128273732},"variant":[{"start":128273725,"end":128273726,"observedAllele":"G","referenceAllele":"T","cigar":"1M"}],"pointer":[{"reference":"MolecularSequence/graphic-example-2"}]}
{"resourceType":"MolecularSequence","id":"graphic-example-2","text":{"status":"generated","div":"\u003cdiv xmlns\u003d\"http://www.w3.org/1999/xhtml\"\u003e\u003cp\u003e\u003cb\u003eGenerated Narrative with Details\u003c/b\u003e\u003c/p\u003e\u003cp\u003e\u003cb\u003eid\u003c/b\u003e: graphic-example-2\u003c/p\u003e\u003cp\u003e\u003cb\u003etype\u003c/b\u003e: dna\u003c/p\u003e\u003cp\u003e\u003cb\u003ecoordinateSystem\u003c/b\u003e: 0\u003c/p\u003e\u003ch3\u003eReferenceSeqs\u003c/h3\u003e\u003ctable\u003e\u003ctr\u003e\u003ctd\u003e-\u003c/td\u003e\u003ctd\u003e\u003cb\u003eReferenceSeqString\u003c/b\u003e\u003c/td\u003e\u003ctd\u003e\u003cb\u003eStrand\u003c/b\u003e\u003c/td\u003e\u003ctd\u003e\u003cb\u003eWindowStart\u003c/b\u003e\u003c/td\u003e\u003ctd\u003e\u003cb\u003eWindowEnd\u003c/b\u003e\u003c/td\u003e\u003c/tr\u003e\u003ctr\u003e\u003ctd\u003e*\u003c/td\u003e\u003ctd\u003eCGCCATTG\u003c/td\u003e\u003ctd\u003ewatson\u003c/td\u003e\u003ctd\u003e0\u003c/td\u003e\u003ctd\u003e8\u003c/td\u003e\u003c/tr\u003e\u003c/table\u003e\u003cp\u003e\u003cb\u003epointer\u003c/b\u003e: \u003ca\u003eMolecularSequence/graphic-example-3\u003c/a\u003e\u003c/p\u003e\u003c/div\u003e"},"type":"dna","coordinateSystem":0,"referenceSeq":{"referenceSeqString":"CGCCATTG","strand":"watson","windowStart":0,"windowEnd":8},"pointer":[{"reference":"MolecularSequence/graphic-example-3"}]}
{"resourceType":"MolecularSequence","id":"graphic-example-3","text":{"status":"generated","div":"\u003cdiv xmlns\u003d\"http://www.w3.org/1999/xhtml\"\u003e\u003cp\u003e\u003cb\u003eGenerated Narrative with Details\u003c/b\u003e\u003c/p\u003e\u003cp\u003e\u003cb\u003eid\u003c/b\u003e: graphic-example-3\u003c/p\u003e\u003cp\u003e\u003cb\u003etype\u003c/b\u003e: dna\u003c/p\u003e\u003cp\u003e\u003cb\u003ecoordinateSystem\u003c/b\u003e: 0\u003c/p\u003e\u003ch3\u003eReferenceSeqs\u003c/h3\u003e\u003ctable\u003e\u003ctr\u003e\u003ctd\u003e-\u003c/td\u003e\u003ctd\u003e\u003cb\u003eReferenceSeqPointer\u003c/b\u003e\u003c/td\u003e\u003ctd\u003e\u003cb\u003eStrand\u003c/b\u003e\u003c/td\u003e\u003ctd\u003e\u003cb\u003eWindowStart\u003c/b\u003e\u003c/td\u003e\u003ctd\u003e\u003cb\u003eWindowEnd\u003c/b\u003e\u003c/td\u003e\u003c/tr\u003e\u003ctr\u003e\u003ctd\u003e*\u003c/td\u003e\u003ctd\u003e\u003ca\u003eMolecularSequence/graphic-example-5\u003c/a\u003e\u003c/td\u003e\u003ctd\u003ewatson\u003c/td\u003e\u003ctd\u003e128273732\u003c/td\u003e\u003ctd\u003e128273736\u003c/td\u003e\u003c/tr\u003e\u003c/table\u003e\u003ch3\u003eVariants\u003c/h3\u003e\u003ctable\u003e\u003ctr\u003e\u003ctd\u003e-\u003c/td\u003e\u003ctd\u003e\u003cb\u003eStart\u003c/b\u003e\u003c/td\u003e\u003ctd\u003e\u003cb\u003eEnd\u003c/b\u003e\u003c/td\u003e\u003ctd\u003e\u003cb\u003eObservedAllele\u003c/b\u003e\u003c/td\u003e\u003ctd\u003e\u003cb\u003eReferenceAllele\u003c/b\u003e\u003c/td\u003e\u003ctd\u003e\u003cb\u003eCigar\u003c/b\u003e\u003c/td\u003e\u003c/tr\u003e\u003ctr\u003e\u003ctd\u003e*\u003c/td\u003e\u003ctd\u003e1282737234\u003c/td\u003e\u003ctd\u003e128273736\u003c/td\u003e\u003ctd\u003eGA\u003c/td\u003e\u003ctd\u003eAT\u003c/td\u003e\u003ctd\u003e2M\u003c/td\u003e\u003c/tr\u003e\u003c/table\u003e\u003cp\u003e\u003cb\u003epointer\u003c/b\u003e: \u003ca\u003eMolecularSequence/graphic-example-4\u003c/a\u003e\u003c/p\u003e\u003c/div\u003e"},"type":"dna","coordinateSystem":0,"referenceSeq":{"referenceSeqPointer":{"reference":"MolecularSequence/graphic-example-5"},"strand":"watson","windowStart":128273732,"windowEnd":128273736},"variant":[{"start":1282737234,"end":128273736,"observedAllele":"GA","referenceAllele":"AT","cigar":"2M"}],"pointer":[{"reference":"MolecularSequence/graphic-example-4"}]}
{"resourceType":"MolecularSequence","id":"graphic-example-4","text":{"status":"generated","div":"\u003cdiv xmlns\u003d\"http://www.w3.org/1999/xhtml\"\u003e\u003cp\u003e\u003cb\u003eGenerated Narrative with Details\u003c/b\u003e\u003c/p\u003e\u003cp\u003e\u003cb\u003eid\u003c/b\u003e: graphic-example-4\u003c/p\u003e\u003cp\u003e\u003cb\u003etype\u003c/b\u003e: dna\u003c/p\u003e\u003cp\u003e\u003cb\u003ecoordinateSystem\u003c/b\u003e: 0\u003c/p\u003e\u003ch3\u003eReferenceSeqs\u003c/h3\u003e\u003ctable\u003e\u003ctr\u003e\u003ctd\u003e-\u003c/td\u003e\u003ctd\u003e\u003cb\u003eChromosome\u003c/b\u003e\u003c/td\u003e\u003ctd\u003e\u003cb\u003eGenomeBuild\u003c/b\u003e\u003c/td\u003e\u003ctd\u003e\u003cb\u003eStrand\u003c/b\u003e\u003c/td\u003e\u003ctd\u003e\u003cb\u003eWindowStart\u003c/b\u003e\u003c/td\u003e\u003ctd\u003e\u003cb\u003eWindowEnd\u003c/b\u003e\u003c/td\u003e\u003c/tr\u003e\u003ctr\u003e\u003ctd\u003e*\u003c/td\u003e\u003ctd\u003echromosome 2 \u003cspan\u003e(Details : {http://terminology.hl7.org/CodeSystem/chromosome-human code \u00272\u0027 \u003d \u0027chromosome 2\u0027, given as \u0027chromosome 2\u0027})\u003c/span\u003e\u003c/td\u003e\u003ctd\u003eGRCh 38\u003c/td\u003e\u003ctd\u003ewatson\u003c/td\u003e\u003ctd\u003e128273736\u003c/td\u003e\u003ctd\u003e128273740\u003c/td\u003e\u003c/tr\u003e\u003c/table\u003e\u003c/div\u003e"},"type":"dna","coordinateSystem":0,"referenceSeq":{"chromosome":{"coding":[{"system":"http://terminology.hl7.org/CodeSystem/chromosome-human","code":"2","display":"chromosome 2"}]},"genomeBuild":"GRCh 38","strand":"watson","windowStart":128273736,"windowEnd":128273740}}
{"resourceType":"MolecularSequence","id":"graphic-example-5","text":{"status":"generated","div":"\u003cdiv xmlns\u003d\"http://www.w3.org/1999/xhtml\"\u003e\u003cp\u003e\u003cb\u003eGenerated Narrative with Details\u003c/b\u003e\u003c/p\u003e\u003cp\u003e\u003cb\u003eid\u003c/b\u003e: graphic-example-5\u003c/p\u003e\u003cp\u003e\u003cb\u003etype\u003c/b\u003e: dna\u003c/p\u003e\u003cp\u003e\u003cb\u003ecoordinateSystem\u003c/b\u003e: 0\u003c/p\u003e\u003ch3\u003eReferenceSeqs\u003c/h3\u003e\u003ctable\u003e\u003ctr\u003e\u003ctd\u003e-\u003c/td\u003e\u003ctd\u003e\u003cb\u003eReferenceSeqId\u003c/b\u003e\u003c/td\u003e\u003ctd\u003e\u003cb\u003eStrand\u003c/b\u003e\u003c/td\u003e\u003ctd\u003e\u003cb\u003eWindowStart\u003c/b\u003e\u003c/td\u003e\u003ctd\u003e\u003cb\u003eWindowEnd\u003c/b\u003e\u003c/td\u003e\u003c/tr\u003e\u003ctr\u003e\u003ctd\u003e*\u003c/td\u003e\u003ctd\u003eNC_000002.12 \u003cspan\u003e(Details : {http://www.ncbi.nlm.nih.gov/nuccore code \u0027NC_000002.12\u0027 \u003d \u0027NC_000002.12)\u003c/span\u003e\u003c/td\u003e\u003ctd\u003ewatson\u003c/td\u003e\u003ctd\u003e128273732\u003c/td\u003e\u003ctd\u003e128273736\u003c/td\u003e\u003c/tr\u003e\u003c/table\u003e\u003c/div\u003e"},"type":"dna","coordinateSystem":0,"referenceSeq":{"referenceSeqId":{"coding":[{"system":"http://www.ncbi.nlm.nih.gov/nuccore","code":"NC_000002.12"}]},"strand":"watson","windowStart":128273732,"windowEnd":128273736}}