<?xml version="1.0" encoding="UTF-8"?><CarePlan xmlns="http://hl7.org/fhir">
  <id value="f203"/>
    <meta>
    <security>
      <system value="http://terminology.hl7.org/CodeSystem/v3-ActReason"/>
      <code value="HTEST"/>
      <display value="test health data"/>
    </security>
  </meta>
  <text><status value="generated"/><div xmlns="http://www.w3.org/1999/xhtml"><p><b>Generated Narrative</b></p><div style="display: inline-block; background-color: #d9e0e7; padding: 6px; margin: 4px; border: 1px solid #8da1b4; border-radius: 5px; line-height: 60%"><p style="margin-bottom: 0px">Resource "f203" </p></div><p><b>status</b>: completed</p><p><b>intent</b>: plan</p><p><b>subject</b>: <a href="patient-f201.html">Patient/f201: Roel</a> "Roel"</p><p><b>period</b>: 2013-04-14 --&gt; 2013-04-21</p><p><b>careTeam</b>: <a name="careteam"> </a></p><blockquote><div style="display: inline-block; background-color: #d9e0e7; padding: 6px; margin: 4px; border: 1px solid #8da1b4; border-radius: 5px; line-height: 60%"><p style="margin-bottom: 0px">Resource "careteam" </p></div><blockquote><p><b>participant</b></p><p><b>role</b>: Review of care plan <span style="background: LightGoldenRodYellow; margin: 4px; border: 1px solid khaki"> (<a href="https://browser.ihtsdotools.org/">SNOMED CT</a>#425268008)</span></p><p><b>member</b>: <a href="practitioner-f201.html">Practitioner/f201: Dokter Bronsig</a> "Dokter Bronsig"</p></blockquote><blockquote><p><b>participant</b></p><p><b>role</b>: Radiographic imaging <span style="background: LightGoldenRodYellow; margin: 4px; border: 1px solid khaki"> (<a href="https://browser.ihtsdotools.org/">SNOMED CT</a>#278110001)</span></p><p><b>member</b>: <a href="practitioner-f202.html">Practitioner/f202: Luigi Maas</a> "Luigi Maas"</p></blockquote></blockquote><p><b>addresses</b>: <a href="condition-f203.html">Condition/f203: Roel's sepsis</a></p><p><b>goal</b>: <a name="goal"> </a></p><blockquote><div style="display: inline-block; background-color: #d9e0e7; padding: 6px; margin: 4px; border: 1px solid #8da1b4; border-radius: 5px; line-height: 60%"><p style="margin-bottom: 0px">Resource "goal" </p></div><p><b>lifecycleStatus</b>: cancelled</p><p><b>description</b>: Check whether further treatment of sepsis/pulmonary abcess is required <span style="background: LightGoldenRodYellow; margin: 4px; border: 1px solid khaki"> ()</span></p><p><b>subject</b>: <a href="patient-f201.html">Patient/f201: Roel</a> "Roel"</p></blockquote><blockquote><p><b>activity</b></p><h3>Details</h3><table class="grid"><tr><td>-</td><td><b>Kind</b></td><td><b>Code</b></td><td><b>Status</b></td><td><b>DoNotPerform</b></td></tr><tr><td>*</td><td>ServiceRequest</td><td>High resolution computed tomography of lungs <span style="background: LightGoldenRodYellow; margin: 4px; border: 1px solid khaki"> (<a href="https://browser.ihtsdotools.org/">SNOMED CT</a>#241541005)</span></td><td>not-started</td><td>false</td></tr></table></blockquote></div></text><contained>
    <CareTeam>
        <id value="careteam"/>
        <participant>
    	    <role>
      		<coding>
        	    <system value="http://snomed.info/sct"/>
	            <code value="425268008"/>
	            <display value="Review of care plan"/>
	      </coding>
    	    </role>
    	    <member>
      		<reference value="Practitioner/f201"/>
      		<display value="Dokter Bronsig"/>
    	    </member>
  	</participant>
 	<participant>
    	    <role>
      		<coding>
        	    <system value="http://snomed.info/sct"/>
	            <code value="278110001"/>
	            <display value="Radiographic imaging"/>
	      </coding>
    	    </role>
    	    <member>
      		<reference value="Practitioner/f202"/>
      		<display value="Luigi Maas"/>
    	    </member>
  	</participant>
    </CareTeam>
  </contained>
  <contained>
    <Goal>
      <id value="goal"/>
      <lifecycleStatus value="cancelled"/>
      <description>
        <text value="Check whether further treatment of sepsis/pulmonary abcess is required"/>
      </description>
      <subject>
        <reference value="Patient/f201"/>
        <display value="Roel"/>
      </subject>      
    </Goal>
  </contained>
  <status value="completed"/>
  <intent value="plan"/>
  <subject>
    <!--  It entails Roel's careplan  -->
    <reference value="Patient/f201"/>
    <display value="Roel"/>
  </subject>
  <period>
    <start value="2013-04-14"/>
    <end value="2013-04-21"/>
  </period>
  <careTeam>
    <reference value="#careteam"/>
  </careTeam>
  <addresses>
    <reference value="Condition/f203"/>
    <display value="Roel's sepsis"/>
  </addresses>
  <goal>
    <reference value="#goal"/>
  </goal>
  <activity>
    <detail>
      <kind value="ServiceRequest"/>
      <code>
        <coding>
          <system value="http://snomed.info/sct"/>
          <code value="241541005"/>
          <display value="High resolution computed tomography of lungs"/>
        </coding>
      </code>
      <status value="not-started"/>
      <doNotPerform value="false"/>
    </detail>
  </activity>
</CarePlan>