{"resourceType":"DocumentReference","id":"example-diagram","text":{"status":"generated","div":"\u003cdiv xmlns\u003d\"http://www.w3.org/1999/xhtml\"\u003e\u003cp\u003e\u003cb\u003eGenerated Narrative\u003c/b\u003e\u003c/p\u003e\u003cp\u003e\u003cb\u003eid\u003c/b\u003e: example-diagram\u003c/p\u003e\u003cp\u003e\u003cb\u003estatus\u003c/b\u003e: current\u003c/p\u003e\u003cp\u003e\u003cb\u003etype\u003c/b\u003e: \u003cspan\u003eImage\u003c/span\u003e\u003c/p\u003e\u003cp\u003e\u003cb\u003esubject\u003c/b\u003e: \u003ca\u003eGenerated Summary: id: xcda; Medical record number: 12345 (USUAL); active; Henry Levin ; gender: male; birthDate: 1932-09-24\u003c/a\u003e\u003c/p\u003e\u003cp\u003e\u003cb\u003edate\u003c/b\u003e: 18/12/2017 1:56:18 AM\u003c/p\u003e\u003cp\u003e\u003cb\u003eauthor\u003c/b\u003e: \u003c/p\u003e\u003cul\u003e\u003cli\u003e\u003ca\u003eGenerated Summary: id: xcda-author; Harold Hippocrates \u003c/a\u003e\u003c/li\u003e\u003cli\u003e\u003cspan\u003eAcme Camera\u003c/span\u003e\u003c/li\u003e\u003c/ul\u003e\u003ch3\u003eContents\u003c/h3\u003e\u003ctable\u003e\u003ctr\u003e\u003ctd\u003e-\u003c/td\u003e\u003ctd\u003e\u003cb\u003eAttachment\u003c/b\u003e\u003c/td\u003e\u003c/tr\u003e\u003ctr\u003e\u003ctd\u003e*\u003c/td\u003e\u003ctd/\u003e\u003c/tr\u003e\u003c/table\u003e\u003c/div\u003e"},"status":"current","type":{"coding":[{"system":"http://terminology.hl7.org/CodeSystem/media-type","code":"image","display":"Image"}]},"subject":{"reference":"Patient/xcda"},"date":"2017-12-17T14:56:18Z","author":[{"reference":"Practitioner/xcda-author"},{"display":"Acme Camera"}],"content":[{"id":"a1","attachment":{"contentType":"image/gif","data":"R0lGODlhfgCRAPcAAAAAAIAAAACAAICAAAAAgIAA    gACAgICAgMDAwP8AAAD/AP//AAAA//8A/wD/////    /wAAAAAAAAAAAAAAAAAAAAAAAAAAAAAAAAAAAAAA    AAAAAAAAAAAAAAAAAAAAAAAAAAAAAAAAAAAAAAAA    AAAAAAAAAAAAAAAAAAAAAAAAMwAAZgAAmQAAzAAA    /wAzAAAzMwAzZgAzmQAzzAAz/wBmAABmMwBmZgBm    mQBmzABm/wCZAACZMwCZZgCZmQCZzACZ/wDMAADM    MwDMZgDMmQDMzADM/wD/AAD/MwD/ZgD/mQD/zAD/    /zMAADMAMzMAZjMAmTMAzDMA/zMzADMzMzMzZjMz    mTMzzDMz/zNmADNmMzNmZjNmmTNmzDNm/zOZADOZ    MzOZZjOZmTOZzDOZ/zPMADPMMzPMZjPMmTPMzDPM    /zP/ADP/MzP/ZjP/mTP/zDP//2YAAGYAM2YAZmYA    mWYAzGYA/2YzAGYzM2YzZmYzmWYzzGYz/2ZmAGZm    M2ZmZmZmmWZmzGZm/2aZAGaZM2aZZmaZmWaZzGaZ    /2bMAGbMM2bMZmbMmWbMzGbM/2b/AGb/M2b/Zmb/    mWb/zGb//5kAAJkAM5kAZpkAmZkAzJkA/5kzAJkz    M5kzZpkzmZkzzJkz/5lmAJlmM5lmZplmmZlmzJlm    /5mZAJmZM5mZZpmZmZmZzJmZ/5nMAJnMM5nMZpnM    mZnMzJnM/5n/AJn/M5n/Zpn/mZn/zJn//8wAAMwA    M8wAZswAmcwAzMwA/8wzAMwzM8wzZswzmcwzzMwz    /8xmAMxmM8xmZsxmmcxmzMxm/8yZAMyZM8yZZsyZ    mcyZzMyZ/8zMAMzMM8zMZszMmczMzMzM/8z/AMz/    M8z/Zsz/mcz/zMz///8AAP8AM/8AZv8Amf8AzP8A    //8zAP8zM/8zZv8zmf8zzP8z//9mAP9mM/9mZv9m    mf9mzP9m//+ZAP+ZM/+ZZv+Zmf+ZzP+Z///MAP/M    M//MZv/Mmf/MzP/M////AP//M///Zv//mf//zP//    /yH5BAEAABAALAAAAAB+AJEAQAj/AP8JHEiwoMGD    CBMqXMiwocOHECNKnEixosWLGFHAckaN2jRnsKZh    HEmy5EMU0+L5EseNG654KEzKnGkShbN4uFq2xOWR    ps+fE5nEy6Wz5a+XQJMqTeisGdGiLuNRi7m0qlJn    06iF7LhxKoqvX2FpnRYSq1eBX62qRYhCKzWzZDeK    3bqR7NSsb99uddZ2r1ZnINuanbrWp82tb8ly/Bjy    a1aOKOu+5ZgXZFa7sARzBMl5a9rCJDl29ejxMuDK    eb3mJYsSa93GIOW61QgWbEjQGStbrru7o2K3dkXj    BUz242WUbj0u9vj1b2KquCn27Rq7I1+9nBkn7gyS    K/HBnFd3/y8bUizf6CM76s0qduxp0pvN23UrOnF7    zB7nWiaMXuZhvGJNoxhjpr3G3WMfJfdbgtD1p1Rb    xgkHX3uUbeYbdli5dp6DHHbo4YcghijiiCSWeJJG    rJloIkoqPeXLNA2q+GFHm+yUSzzxiCQjiG3hVFQu    N+74IQry4JSTTjfCImSHyE1TyS9I+iJPZkv21ySE    +bE31VTjhZfZfhm2V+VJXLH3WH70MfZVeKfF9Z1i    nv3mXldjEiTYmX9tpVhkXrW1JpfX6bVdnosh19xG    INVpk3JydafYZjC6RhqMNlHa11u0aQbjl/mVJaB1    McrY16eSSeYle2AmqGp5wIl1KVxj+f8WIDV1/iOY    Vote5lt4eZUn6WsI+kZgp6iVxV+tAs064aqUebdr    aW55GqZ2AiIWKrIHQahfo3bBeaZ5zq1q17XYMoQl    eQt+Jxt56jXrarnwxivvvPTWa++9TJYlGrn4+kdN    PJv4kksz92zY709ExqPJkbncw+/BI9mEDy4Mx+MM    xD/9+xQ3m+RIK8Yz2STPkS11s8nFIMvEhDw1FoVL    xynLdI9KR+bUMMoxR+yML1BxIyWMOY+0kTxQuizV    w0E3hOJjBTe9UYO1fZZ0Qlga59hYvgLX3W7GWo20    vLWV5uqjlHZUaVcDbukuZVTe29poqNYnZ2ZzrdbV    0hRmdZh9dX3/raKv5MknG19YVojmVPIJmtlwhBpX    bq4V6trd1VhV6t5jfM6XWWVzaRmZ3yO+3WaAi3XG    FZfP2vRnYogLp+tec4Ee4qLZ3dfV3XXpHanZMHJV    d6WsucprXJiOyaZ+iaH60aJ1JxirRoCF5Wdmfnql    J9uUVdma1m7CvTe74mHWLSyNgft6nmaDNSZy5o1m    HvPWadW+aN9luVxglpnVeXF6Kxr/88MhX3wcJZsB    uS81uDpc+5KDM0VBr3SlAQx1LBSSy1AHT2iSS1u2    E6DYwUtbGTQOacj3mPGg6TeSEZBrWAUnyMzrbVk6    XVyKsxgCwW0/62GMhVKErw12S1D5S0185RQnn8XQ    xYUx45NyNOe87gCRPubZj+xeaB+smIl+yllirCho    xKmhxExoK1Cv0BSftAVmamhMoxrXyMY2uvGNcIyj    HOeoxkXBh44OOZdn8Ggu+DiPjwtJ2CZyUomCTRGO    KJFHLljiEnkc8o0Sy0U3WpILoAGSLf9qmc86ckmE    /MtHOfEFVjp5EGfc40jieAlgSFmQL27sF/GQx8dY    iRaP8EwnL9ERLW1lS5L5whfxyMcubaWworVEHIX0    xzBRcI9NMBJJ9xgmMTW5E19QQ5m0tAlOjOkzeeiS    lcwcJFSAeSxSomRjuDT/2y6ncQ9fkMwozMkmVhRW    lFTGk5T5sAlgaCawjjWjnJcEYoYWRJU/CUdqbQSX    bNYEGRQZjj630qAXO7MmRJ3pOq65DOOiBaqghaVy    a4sUcrKYn+ugay+PXFJzgiOesGWISx3sFfRoaEHC    qY9ePmzUpCoTnN5JyobF8lx9zJJSEZlqWNK6D0ar    taDWsY4zOV2NVj5olq2VVIvCQ1GsjKURBSnnbCJk    FbzihxdSqYc1MAyhZZBDPwZ1sKygKiqTHsOqPGFO    L8JrX7cgxBmiYk2LagKo9uQ3LKv2zjGcMlbsVLUv    I2YRUf+Z5fq2GqzRqO04Z2POlyo4m7KGB3oXsmSd    /2Llps7Mh6mVK84FtQW9qllnccLJkFythBgUyo2F    AlzTgMIyqECVDkZltSgSB6unZ8Vwc9jZHKUIJ8Ll    8YkvkmLUa3koJPaFdoGeK2Ln9KI6S4GFVMsDV31e    M1vQqPZT+uMpcJYY2/V89y9+0tuoKuqp8mhvfKnx    7NNI95fiCIpx1Nmchrj1VbaWtzAOdSLr6MLX+5VH    Px+BVIVQdLuXKk8v2pMg69wzFodez0x/Fa+37tQ4    CcbnwAge6Icbg9Ww6gpAALLrXer20mKhuDDGoWlg    /Aveq8InizQsjwq7GkQEEVVRsWHQYYIYQ+cFK00G    4o1webxWZEEIsVAEznmH6N1Y4eiUNJaLaRex9UVf    wWlSJCRhr+AiZElZsYZoi5xg12eqp3buNEJm3LRQ    BcTeSZUx8/pLdk53w9p6CYKE/p+J83NjJuUPeemq    71bbqrjTkTEvjfaQDyFFnXbJr1lshqIKnaja4uHr    tWEa4beqRZpJpXcvy3kaxhxD6U/NqaQ0xCr6jJhp    FUlYPVl01HrsI8JYPSdpoCXhEG2YUVzrqT2mzpkS    KVRAG955u3SJdhITZ766KosyNjQOnZAt6F3d7oQJ    +inaJNPrHUXt3fCOt7ylSe962/ve+M63vvkYEAA7","creation":"2009-09-03","height":145,"width":126,"frames":1}}]}
{"resourceType":"DocumentReference","id":"1.2.840.11361907579238403408700.3.1.04.19970327150033","text":{"status":"generated","div":"\u003cdiv xmlns\u003d\"http://www.w3.org/1999/xhtml\"\u003e\n      Ultrasound Image on patient \u0026quot;James Chalmers\u0026quot;:\u003cbr/\u003e\n      \u003cimg src\u003d\"http://imaging.acme.com/wado/server?requestType\u003dWADO\u0026amp;contentType\u003dapplication%2Fdicom\u0026amp;studyUid\u003d1.2.840.113619.2.21.848.34082.0.538976288.3\u0026amp;seriesUid\u003d1.2.840.113619.2.21.3408.700.0.757923840.3.0\u0026amp;objectUid\u003d1.2.840.11361907579238403408700.3.1.04.19970327150033\" alt\u003d\"WADO reference to image\"/\u003e\n\n    \u003c/div\u003e"},"extension":[{"url":"http://nema.org/fhir/extensions#0002-0010","valueUri":"urn:oid:1.2.840.10008.1.2.1"}],"identifier":[{"type":{"text":"accessionNo"},"system":"http://acme-imaging.com/accession/2012","value":"1234567"},{"type":{"text":"studyId"},"system":"urn:dicom:uid","value":"urn:oid:1.2.840.113619.2.21.848.34082.0.538976288.3"},{"type":{"text":"seriesId"},"system":"urn:dicom:uid","value":"urn:oid:1.2.840.113619.2.21.3408.700.0.757923840.3.0"}],"status":"current","subject":{"reference":"Patient/example"},"event":[{"coding":[{"system":"http://dicom.nema.org/resources/ontology/DCM","code":"US"}]},{"coding":[{"system":"http://snomed.info/sct","code":"399067008","display":"Lateral projection"}]}],"author":[{"display":"G.E. Medical Systems"}],"content":[{"attachment":{"contentType":"application/dicom","url":"http://imaging.acme.com/wado/server?requestType\u003dWADO\u0026contentType\u003dapplication%2Fdicom\u0026studyUid\u003d1.2.840.113619.2.21.848.34082.0.538976288.3\u0026seriesUid\u003d1.2.840.113619.2.21.3408.700.0.757923840.3.0\u0026objectUid\u003d1.2.840.11361907579238403408700.3.1.04.19970327150033","height":480,"width":640},"identifier":{"use":"official","type":{"text":"InstanceUID"},"system":"urn:dicom:uid","value":"urn:oid:1.2.840.11361907579238403408700.3.1.04.19970327150033"}}]}
{"resourceType":"DocumentReference","id":"sound","text":{"status":"generated","div":"\u003cdiv xmlns\u003d\"http://www.w3.org/1999/xhtml\"\u003eSound recording of speech example for Patient Henry Levin (MRN 12345):\u003cbr/\u003e\u003cimg src\u003d\"#11\" alt\u003d\"diagram\"/\u003e\u003c/div\u003e"},"status":"current","subject":{"reference":"Patient/xcda"},"author":[{"reference":"Practitioner/xcda-author"}],"content":[{"attachment":{"contentType":"audio/mpeg","data":"dG9vIGJpZyB0b28gaW5jbHVkZSB0aGUgd2hvbGU\u003d","duration":65}}]}
{"resourceType":"DocumentReference","id":"xray","text":{"status":"generated","div":"\u003cdiv xmlns\u003d\"http://www.w3.org/1999/xhtml\"\u003eXray of left hand for Patient Henry Levin (MRN 12345) 2016-03-15\u003c/div\u003e"},"status":"current","subject":{"reference":"Patient/example"},"encounter":[{"reference":"Encounter/example"},{"identifier":{"system":"http://someclinic.org/fhir/NamingSystem/imaging-orders","value":"111222","assigner":{"display":"XYZ Medical Clinic"}}}],"event":[{"coding":[{"system":"http://snomed.info/sct","code":"39714003","display":"Skeletal X-ray of wrist and hand"}]},{"coding":[{"system":"http://snomed.info/sct","code":"85151006","display":"Structure of left hand (body structure)"}]}],"content":[{"id":"a1","attachment":{"contentType":"image/jpeg","url":"http://someimagingcenter.org/fhir/Binary/A12345","creation":"2016-03-15","height":432,"width":640}}]}
{"resourceType":"DocumentReference","id":"example","text":{"status":"generated","div":"\u003cdiv xmlns\u003d\"http://www.w3.org/1999/xhtml\"\u003e\u003cp\u003e\u003cb\u003eGenerated Narrative\u003c/b\u003e\u003c/p\u003e\u003cp\u003e\u003cb\u003eid\u003c/b\u003e: example\u003c/p\u003e\u003cp\u003e\u003cb\u003eidentifier\u003c/b\u003e: id: urn:oid:1.3.6.1.4.1.21367.2005.3.7.1234\u003c/p\u003e\u003cp\u003e\u003cb\u003estatus\u003c/b\u003e: current\u003c/p\u003e\u003cp\u003e\u003cb\u003edocStatus\u003c/b\u003e: preliminary\u003c/p\u003e\u003cp\u003e\u003cb\u003etype\u003c/b\u003e: \u003cspan\u003eOutpatient Note\u003c/span\u003e\u003c/p\u003e\u003cp\u003e\u003cb\u003ecategory\u003c/b\u003e: \u003cspan\u003eHistory and Physical\u003c/span\u003e\u003c/p\u003e\u003cp\u003e\u003cb\u003esubject\u003c/b\u003e: \u003ca\u003eGenerated Summary: id: xcda; Medical record number: 12345 (USUAL); active; Henry Levin ; gender: male; birthDate: 1932-09-24\u003c/a\u003e\u003c/p\u003e\u003cp\u003e\u003cb\u003eencounter\u003c/b\u003e: \u003ca\u003eGenerated Summary: id: xcda; id: 1234213.52345873 (OFFICIAL); status: completed; \u003cspan\u003eambulatory\u003c/span\u003e; \u003cspan\u003eArm\u003c/span\u003e\u003c/a\u003e\u003c/p\u003e\u003cp\u003e\u003cb\u003eevent\u003c/b\u003e: \u003cspan\u003eArm\u003c/span\u003e\u003c/p\u003e\u003cp\u003e\u003cb\u003efacilityType\u003c/b\u003e: \u003cspan\u003eOutpatient\u003c/span\u003e\u003c/p\u003e\u003cp\u003e\u003cb\u003epracticeSetting\u003c/b\u003e: \u003cspan\u003eGeneral Medicine\u003c/span\u003e\u003c/p\u003e\u003cp\u003e\u003cb\u003eperiod\u003c/b\u003e: 23/12/2004 8:00:00 AM --\u0026gt; 23/12/2004 8:01:00 AM\u003c/p\u003e\u003cp\u003e\u003cb\u003edate\u003c/b\u003e: 24/12/2005 9:43:41 AM\u003c/p\u003e\u003cp\u003e\u003cb\u003eauthor\u003c/b\u003e: \u003c/p\u003e\u003cul\u003e\u003cli\u003e\u003ca\u003eGenerated Summary: id: xcda1; id: D234123 (OFFICIAL); Sherry Dopplemeyer ; john.doe@healthcare.example.org\u003c/a\u003e\u003c/li\u003e\u003cli\u003e\u003ca\u003e \u003c/a\u003e\u003c/li\u003e\u003c/ul\u003e\u003cblockquote\u003e\u003cp\u003e\u003cb\u003eid\u003c/b\u003e: a2\u003c/p\u003e\u003cp\u003e\u003cb\u003ename\u003c/b\u003e: Gerald Smitty \u003c/p\u003e\u003c/blockquote\u003e\u003ch3\u003eAttesters\u003c/h3\u003e\u003ctable\u003e\u003ctr\u003e\u003ctd\u003e-\u003c/td\u003e\u003ctd\u003e\u003cb\u003eMode\u003c/b\u003e\u003c/td\u003e\u003ctd\u003e\u003cb\u003eParty\u003c/b\u003e\u003c/td\u003e\u003c/tr\u003e\u003ctr\u003e\u003ctd\u003e*\u003c/td\u003e\u003ctd\u003eofficial\u003c/td\u003e\u003ctd\u003e\u003ca\u003eGenerated Summary: id: f001; id: 91654 (OFFICIAL), id: 17-0112278 (USUAL); \u003cspan\u003eUniversity Medical Hospital\u003c/span\u003e; name: Burgers University Medical Center; ph: 022-655 2300(WORK)\u003c/a\u003e\u003c/td\u003e\u003c/tr\u003e\u003c/table\u003e\u003cp\u003e\u003cb\u003ecustodian\u003c/b\u003e: \u003ca\u003eGenerated Summary: id: f001; id: 91654 (OFFICIAL), id: 17-0112278 (USUAL); \u003cspan\u003eUniversity Medical Hospital\u003c/span\u003e; name: Burgers University Medical Center; ph: 022-655 2300(WORK)\u003c/a\u003e\u003c/p\u003e\u003ch3\u003eRelatesTos\u003c/h3\u003e\u003ctable\u003e\u003ctr\u003e\u003ctd\u003e-\u003c/td\u003e\u003ctd\u003e\u003cb\u003eCode\u003c/b\u003e\u003c/td\u003e\u003ctd\u003e\u003cb\u003eTarget\u003c/b\u003e\u003c/td\u003e\u003c/tr\u003e\u003ctr\u003e\u003ctd\u003e*\u003c/td\u003e\u003ctd\u003eappends\u003c/td\u003e\u003ctd\u003e\u003ca\u003eGenerated Summary: id: example; id: urn:oid:1.3.6.1.4.1.21367.2005.3.7.1234; status: current; docStatus: preliminary; \u003cspan\u003eOutpatient Note\u003c/span\u003e; \u003cspan\u003eHistory and Physical\u003c/span\u003e; \u003cspan\u003eArm\u003c/span\u003e; \u003cspan\u003eOutpatient\u003c/span\u003e; \u003cspan\u003eGeneral Medicine\u003c/span\u003e; period: 23/12/2004 8:00:00 AM --\u0026gt; 23/12/2004 8:01:00 AM; date: 24/12/2005 9:43:41 AM; description: Physical; \u003cspan\u003every restricted\u003c/span\u003e\u003c/a\u003e\u003c/td\u003e\u003c/tr\u003e\u003c/table\u003e\u003cp\u003e\u003cb\u003edescription\u003c/b\u003e: Physical\u003c/p\u003e\u003cp\u003e\u003cb\u003esecurityLabel\u003c/b\u003e: \u003cspan\u003every restricted\u003c/span\u003e\u003c/p\u003e\u003ch3\u003eContents\u003c/h3\u003e\u003ctable\u003e\u003ctr\u003e\u003ctd\u003e-\u003c/td\u003e\u003ctd\u003e\u003cb\u003eAttachment\u003c/b\u003e\u003c/td\u003e\u003ctd\u003e\u003cb\u003eFormat\u003c/b\u003e\u003c/td\u003e\u003ctd\u003e\u003cb\u003eIdentifier\u003c/b\u003e\u003c/td\u003e\u003c/tr\u003e\u003ctr\u003e\u003ctd\u003e*\u003c/td\u003e\u003ctd/\u003e\u003ctd\u003e\u003cspan\u003eHistory and Physical Specification\u003c/span\u003e\u003c/td\u003e\u003ctd\u003eid: urn:oid:1.3.6.1.4.1.21367.2005.3.7\u003c/td\u003e\u003c/tr\u003e\u003c/table\u003e\u003cp\u003e\u003cb\u003esourcePatientInfo\u003c/b\u003e: \u003ca\u003eGenerated Summary: id: xcda; Medical record number: 12345 (USUAL); active; Henry Levin ; gender: male; birthDate: 1932-09-24\u003c/a\u003e\u003c/p\u003e\u003cp\u003e\u003cb\u003erelated\u003c/b\u003e: \u003ca\u003eGenerated Summary: id: xcda; Medical record number: 12345 (USUAL); active; Henry Levin ; gender: male; birthDate: 1932-09-24\u003c/a\u003e\u003c/p\u003e\u003c/div\u003e"},"contained":[{"resourceType":"Practitioner","id":"a2","name":[{"family":"Smitty","given":["Gerald"]}]}],"identifier":[{"system":"urn:ietf:rfc:3986","value":"urn:oid:1.3.6.1.4.1.21367.2005.3.7.1234"}],"status":"current","docStatus":"preliminary","type":{"coding":[{"system":"http://loinc.org","code":"34108-1","display":"Outpatient Note"}]},"category":[{"coding":[{"system":"http://ihe.net/xds/connectathon/classCodes","code":"History and Physical","display":"History and Physical"}]}],"subject":{"reference":"Patient/xcda"},"encounter":[{"reference":"Encounter/xcda"}],"event":[{"coding":[{"system":"http://ihe.net/xds/connectathon/eventCodes","code":"T-D8200","display":"Arm"}]}],"facilityType":{"coding":[{"system":"http://www.ihe.net/xds/connectathon/healthcareFacilityTypeCodes","code":"Outpatient","display":"Outpatient"}]},"practiceSetting":{"coding":[{"system":"http://www.ihe.net/xds/connectathon/practiceSettingCodes","code":"General Medicine","display":"General Medicine"}]},"period":{"start":"2004-12-23T08:00:00+11:00","end":"2004-12-23T08:01:00+11:00"},"date":"2005-12-24T09:43:41+11:00","author":[{"reference":"Practitioner/xcda1"},{"reference":"#a2"}],"attester":[{"mode":"official","party":{"reference":"Organization/f001"}}],"custodian":{"reference":"Organization/f001"},"relatesTo":[{"code":"appends","target":{"reference":"DocumentReference/example"}}],"description":"Physical","securityLabel":[{"coding":[{"system":"http://terminology.hl7.org/CodeSystem/v3-Confidentiality","code":"V","display":"very restricted"}]}],"content":[{"attachment":{"contentType":"application/hl7-v3+xml","language":"en-US","url":"http://example.org/xds/mhd/Binary/07a6483f-732b-461e-86b6-edb665c45510","size":"3654","hash":"2jmj7l5rSw0yVb/vlWAYkK/YBwk\u003d","title":"Physical","creation":"2005-12-24T09:35:00+11:00"},"format":{"system":"urn:oid:1.3.6.1.4.1.19376.1.2.3","code":"urn:ihe:pcc:handp:2008","display":"History and Physical Specification"},"identifier":{"system":"urn:ietf:rfc:3986","value":"urn:oid:1.3.6.1.4.1.21367.2005.3.7"}}],"sourcePatientInfo":{"reference":"Patient/xcda"},"related":[{"reference":"Patient/xcda","identifier":{"system":"urn:ietf:rfc:3986","value":"urn:oid:1.3.6.1.4.1.21367.2005.3.7.2345"}}]}